Time,header.seq,header.stamp.secs,header.stamp.nsecs,header.frame_id,orientation.x,orientation.y,orientation.z,orientation.w,orientation_covariance_0,orientation_covariance_1,orientation_covariance_2,orientation_covariance_3,orientation_covariance_4,orientation_covariance_5,orientation_covariance_6,orientation_covariance_7,orientation_covariance_8,angular_velocity.x,angular_velocity.y,angular_velocity.z,angular_velocity_covariance_0,angular_velocity_covariance_1,angular_velocity_covariance_2,angular_velocity_covariance_3,angular_velocity_covariance_4,angular_velocity_covariance_5,angular_velocity_covariance_6,angular_velocity_covariance_7,angular_velocity_covariance_8,linear_acceleration.x,linear_acceleration.y,linear_acceleration.z,linear_acceleration_covariance_0,linear_acceleration_covariance_1,linear_acceleration_covariance_2,linear_acceleration_covariance_3,linear_acceleration_covariance_4,linear_acceleration_covariance_5,linear_acceleration_covariance_6,linear_acceleration_covariance_7,linear_acceleration_covariance_8
1728920417.3661976,229513,1728920417,344596928,base_link,-0.021547970343974116,0.03217877785931571,0.6887823992952754,-0.7239330201410762,1.0,0.0,0.0,0.0,1.0,0.0,0.0,0.0,1.0,-0.0013789332006126642,0.0006418032571673394,0.0011907415464520454,1.2184696791468346e-07,0.0,0.0,0.0,1.2184696791468346e-07,0.0,0.0,0.0,1.2184696791468346e-07,0.16671305,0.7354987500000013,9.7478101,8.999999999999999e-08,0.0,0.0,0.0,8.999999999999999e-08,0.0,0.0,0.0,8.999999999999999e-08
1728920417.4658835,229514,1728920417,444771264,base_link,-0.021542888282983366,0.03216425706761516,0.6887879126237896,-0.723928571031064,1.0,0.0,0.0,0.0,1.0,0.0,0.0,0.0,1.0,0.0008571974467486143,-0.0010078069753944874,0.0005954005755484105,1.2184696791468346e-07,0.0,0.0,0.0,1.2184696791468346e-07,0.0,0.0,0.0,1.2184696791468346e-07,0.16671305,0.7354987500000013,9.7478101,8.999999999999999e-08,0.0,0.0,0.0,8.999999999999999e-08,0.0,0.0,0.0,8.999999999999999e-08
1728920417.5630214,229515,1728920417,542945600,base_link,-0.021555181722417657,0.032192173924656765,0.6887706283174526,-0.7239434091461152,1.0,0.0,0.0,0.0,1.0,0.0,0.0,0.0,1.0,0.00022032996639609337,1.228880137205116e-05,-0.0006496869027614594,1.2184696791468346e-07,0.0,0.0,0.0,1.2184696791468346e-07,0.0,0.0,0.0,1.2184696791468346e-07,0.16671305,0.7354987500000013,9.7478101,8.999999999999999e-08,0.0,0.0,0.0,8.999999999999999e-08,0.0,0.0,0.0,8.999999999999999e-08
1728920417.6632793,229516,1728920417,643119168,base_link,-0.021549130981732403,0.0322146397120491,0.688757837321978,-0.7239547592700158,1.0,0.0,0.0,0.0,1.0,0.0,0.0,0.0,1.0,0.00038332631811499596,-8.453463669866332e-05,-0.0006336583755910397,1.2184696791468346e-07,0.0,0.0,0.0,1.2184696791468346e-07,0.0,0.0,0.0,1.2184696791468346e-07,0.16671305,0.7354987500000013,9.7478101,8.999999999999999e-08,0.0,0.0,0.0,8.999999999999999e-08,0.0,0.0,0.0,8.999999999999999e-08
1728920417.7643137,229517,1728920417,743292224,base_link,-0.021523632390003686,0.032199195672005146,0.6887761927302622,-0.7239387414518033,1.0,0.0,0.0,0.0,1.0,0.0,0.0,0.0,1.0,-0.0009873725939542055,3.228115383535625e-05,0.00010588625445961952,1.2184696791468346e-07,0.0,0.0,0.0,1.2184696791468346e-07,0.0,0.0,0.0,1.2184696791468346e-07,0.16671305,0.7354987500000013,9.7478101,8.999999999999999e-08,0.0,0.0,0.0,8.999999999999999e-08,0.0,0.0,0.0,8.999999999999999e-08
1728920417.86492,229518,1728920417,843465024,base_link,-0.02154222553627548,0.03222068301398257,0.6887551404237042,-0.7239572616149244,1.0,0.0,0.0,0.0,1.0,0.0,0.0,0.0,1.0,-1.4799414202570915e-05,-0.0006624542875215411,0.00044187263119965797,1.2184696791468346e-07,0.0,0.0,0.0,1.2184696791468346e-07,0.0,0.0,0.0,1.2184696791468346e-07,0.1765197,0.7354987500000013,9.75761675,8.999999999999999e-08,0.0,0.0,0.0,8.999999999999999e-08,0.0,0.0,0.0,8.999999999999999e-08
1728920417.9651654,229519,1728920417,943637056,base_link,-0.021539805046794914,0.03218760001529044,0.6887744760325093,-0.7239404094053211,1.0,0.0,0.0,0.0,1.0,0.0,0.0,0.0,1.0,3.309641033411026e-05,0.00038822600618004777,-0.0016366038471460342,1.2184696791468346e-07,0.0,0.0,0.0,1.2184696791468346e-07,0.0,0.0,0.0,1.2184696791468346e-07,0.1765197,0.7354987500000013,9.75761675,8.999999999999999e-08,0.0,0.0,0.0,8.999999999999999e-08,0.0,0.0,0.0,8.999999999999999e-08
1728920418.0678203,229520,1728920418,45815232,base_link,-0.02154701570554589,0.03218923461371719,0.6887854587437737,-0.7239296727668353,1.0,0.0,0.0,0.0,1.0,0.0,0.0,0.0,1.0,-0.000731355044990778,0.00010135758202522992,-0.00016345269978046417,1.2184696791468346e-07,0.0,0.0,0.0,1.2184696791468346e-07,0.0,0.0,0.0,1.2184696791468346e-07,0.1765197,0.7354987500000013,9.75761675,8.999999999999999e-08,0.0,0.0,0.0,8.999999999999999e-08,0.0,0.0,0.0,8.999999999999999e-08
1728920418.164243,229521,1728920418,143993152,base_link,-0.021525411945639897,0.03221139320584149,0.688798786551323,-0.7239166488165155,1.0,0.0,0.0,0.0,1.0,0.0,0.0,0.0,1.0,0.000417578499764204,0.0007127924473024905,-0.0001933225430548192,1.2184696791468346e-07,0.0,0.0,0.0,1.2184696791468346e-07,0.0,0.0,0.0,1.2184696791468346e-07,0.1765197,0.7354987500000013,9.75761675,8.999999999999999e-08,0.0,0.0,0.0,8.999999999999999e-08,0.0,0.0,0.0,8.999999999999999e-08
1728920418.2648847,229522,1728920418,244170560,base_link,-0.021527596877904526,0.03223151421772238,0.6888021739554882,-0.7239124651628044,1.0,0.0,0.0,0.0,1.0,0.0,0.0,0.0,1.0,-8.288118988275528e-05,0.0004765618359670042,-0.0011024859268218279,1.2184696791468346e-07,0.0,0.0,0.0,1.2184696791468346e-07,0.0,0.0,0.0,1.2184696791468346e-07,0.1765197,0.7354987500000013,9.75761675,8.999999999999999e-08,0.0,0.0,0.0,8.999999999999999e-08,0.0,0.0,0.0,8.999999999999999e-08
1728920418.3680878,229523,1728920418,346347456,base_link,-0.021508738841334623,0.03221780385554286,0.6888270992810155,-0.7238899188165856,1.0,0.0,0.0,0.0,1.0,0.0,0.0,0.0,1.0,-0.0005911686457693577,0.0005232841940596699,-0.0008420939557254316,1.2184696791468346e-07,0.0,0.0,0.0,1.2184696791468346e-07,0.0,0.0,0.0,1.2184696791468346e-07,0.1569064,0.7354987500000013,9.7478101,8.999999999999999e-08,0.0,0.0,0.0,8.999999999999999e-08,0.0,0.0,0.0,8.999999999999999e-08
1728920418.4653468,229524,1728920418,444523584,base_link,-0.0215238536918256,0.03222468695384292,0.6888130344460618,-0.7239025465145071,1.0,0.0,0.0,0.0,1.0,0.0,0.0,0.0,1.0,-0.0004899415653198957,-0.0012333057820796967,0.00029297010041773336,1.2184696791468346e-07,0.0,0.0,0.0,1.2184696791468346e-07,0.0,0.0,0.0,1.2184696791468346e-07,0.1569064,0.7354987500000013,9.7478101,8.999999999999999e-08,0.0,0.0,0.0,8.999999999999999e-08,0.0,0.0,0.0,8.999999999999999e-08
1728920418.565005,229525,1728920418,544699456,base_link,-0.021519789971903965,0.03219528013255432,0.6888353100525002,-0.7238827793238538,1.0,0.0,0.0,0.0,1.0,0.0,0.0,0.0,1.0,-0.00034545897506177425,0.0013369760708883403,-0.0010281882714480164,1.2184696791468346e-07,0.0,0.0,0.0,1.2184696791468346e-07,0.0,0.0,0.0,1.2184696791468346e-07,0.1569064,0.7354987500000013,9.7478101,8.999999999999999e-08,0.0,0.0,0.0,8.999999999999999e-08,0.0,0.0,0.0,8.999999999999999e-08
1728920418.665195,229526,1728920418,644875072,base_link,-0.021510861470363914,0.03219917057969134,0.6888232088479685,-0.7238943867755646,1.0,0.0,0.0,0.0,1.0,0.0,0.0,0.0,1.0,-0.0006052874960005283,-0.0006714710034430026,0.000580939929932356,1.2184696791468346e-07,0.0,0.0,0.0,1.2184696791468346e-07,0.0,0.0,0.0,1.2184696791468346e-07,0.1569064,0.7354987500000013,9.7478101,8.999999999999999e-08,0.0,0.0,0.0,8.999999999999999e-08,0.0,0.0,0.0,8.999999999999999e-08
1728920418.7658482,229527,1728920418,745051968,base_link,-0.021486404501040293,0.03218575102519682,0.6888335184117393,-0.7238858996865914,1.0,0.0,0.0,0.0,1.0,0.0,0.0,0.0,1.0,-0.0012143293861299753,-0.0003877358976751567,-0.0009717559441924095,1.2184696791468346e-07,0.0,0.0,0.0,1.2184696791468346e-07,0.0,0.0,0.0,1.2184696791468346e-07,0.1569064,0.7354987500000013,9.7478101,8.999999999999999e-08,0.0,0.0,0.0,8.999999999999999e-08,0.0,0.0,0.0,8.999999999999999e-08
1728920418.883808,229528,1728920418,845227584,base_link,-0.02147805754525553,0.03216927206738693,0.6888336795816677,-0.7238867265344194,1.0,0.0,0.0,0.0,1.0,0.0,0.0,0.0,1.0,0.0005890571046620607,-1.3300683349371065e-05,-0.0008865385316312313,1.2184696791468346e-07,0.0,0.0,0.0,1.2184696791468346e-07,0.0,0.0,0.0,1.2184696791468346e-07,0.16671305,0.7354987500000013,9.7478101,8.999999999999999e-08,0.0,0.0,0.0,8.999999999999999e-08,0.0,0.0,0.0,8.999999999999999e-08
1728920418.9683552,229529,1728920418,947402432,base_link,-0.021494683262862913,0.03214135373954452,0.6888317665221667,-0.7238892936086083,1.0,0.0,0.0,0.0,1.0,0.0,0.0,0.0,1.0,-0.0001495308242738247,0.0005894837086088956,0.0006487956270575522,1.2184696791468346e-07,0.0,0.0,0.0,1.2184696791468346e-07,0.0,0.0,0.0,1.2184696791468346e-07,0.16671305,0.7354987500000013,9.7478101,8.999999999999999e-08,0.0,0.0,0.0,8.999999999999999e-08,0.0,0.0,0.0,8.999999999999999e-08
1728920419.0959117,229530,1728920419,45577024,base_link,-0.021463289333226464,0.03211387523621699,0.6888543924055417,-0.7238699139292246,1.0,0.0,0.0,0.0,1.0,0.0,0.0,0.0,1.0,-0.0010921279899775982,0.0004184278659522533,-0.00026006763800978666,1.2184696791468346e-07,0.0,0.0,0.0,1.2184696791468346e-07,0.0,0.0,0.0,1.2184696791468346e-07,0.16671305,0.7354987500000013,9.7478101,8.999999999999999e-08,0.0,0.0,0.0,8.999999999999999e-08,0.0,0.0,0.0,8.999999999999999e-08
1728920419.1662374,229531,1728920419,145751360,base_link,-0.0214605783029868,0.032113893514672955,0.6888316668860784,-0.7238916190405688,1.0,0.0,0.0,0.0,1.0,0.0,0.0,0.0,1.0,-0.0008902018889784813,0.0005607621860690415,-0.00043554580770432954,1.2184696791468346e-07,0.0,0.0,0.0,1.2184696791468346e-07,0.0,0.0,0.0,1.2184696791468346e-07,0.16671305,0.7354987500000013,9.7478101,8.999999999999999e-08,0.0,0.0,0.0,8.999999999999999e-08,0.0,0.0,0.0,8.999999999999999e-08
1728920419.2658987,229532,1728920419,245925184,base_link,-0.02147803042398824,0.03210494659998152,0.6888229995778453,-0.7238997457283007,1.0,0.0,0.0,0.0,1.0,0.0,0.0,0.0,1.0,-0.000835041981190443,0.0004809023812413217,0.001288808649405837,1.2184696791468346e-07,0.0,0.0,0.0,1.2184696791468346e-07,0.0,0.0,0.0,1.2184696791468346e-07,0.16671305,0.7354987500000013,9.7478101,8.999999999999999e-08,0.0,0.0,0.0,8.999999999999999e-08,0.0,0.0,0.0,8.999999999999999e-08
1728920419.369169,229533,1728920419,348099520,base_link,-0.02147863271578575,0.03211048470864045,0.688823262069053,-0.723899232449507,1.0,0.0,0.0,0.0,1.0,0.0,0.0,0.0,1.0,0.00026555941440165043,0.001105831703171134,-0.0001809222158044578,1.2184696791468346e-07,0.0,0.0,0.0,1.2184696791468346e-07,0.0,0.0,0.0,1.2184696791468346e-07,0.16671305,0.7256921000000013,9.7478101,8.999999999999999e-08,0.0,0.0,0.0,8.999999999999999e-08,0.0,0.0,0.0,8.999999999999999e-08
1728920419.4965243,229534,1728920419,446273344,base_link,-0.02149098456760938,0.03208444750097428,0.6888018185907117,-0.7239204241606949,1.0,0.0,0.0,0.0,1.0,0.0,0.0,0.0,1.0,-0.0011464182753115892,0.0007995584746822715,9.679142385721197e-05,1.2184696791468346e-07,0.0,0.0,0.0,1.2184696791468346e-07,0.0,0.0,0.0,1.2184696791468346e-07,0.16671305,0.7256921000000013,9.7478101,8.999999999999999e-08,0.0,0.0,0.0,8.999999999999999e-08,0.0,0.0,0.0,8.999999999999999e-08
1728920419.5677016,229535,1728920419,546446912,base_link,-0.021492984235314466,0.032117928710244444,0.6887906798674909,-0.723929478341436,1.0,0.0,0.0,0.0,1.0,0.0,0.0,0.0,1.0,0.0007626945152878761,-0.0010972857708111405,0.00026513321790844213,1.2184696791468346e-07,0.0,0.0,0.0,1.2184696791468346e-07,0.0,0.0,0.0,1.2184696791468346e-07,0.16671305,0.7256921000000013,9.7478101,8.999999999999999e-08,0.0,0.0,0.0,8.999999999999999e-08,0.0,0.0,0.0,8.999999999999999e-08
1728920419.6671443,229536,1728920419,646623296,base_link,-0.021487841600180656,0.03212321829733771,0.688793030114183,-0.7239271601312588,1.0,0.0,0.0,0.0,1.0,0.0,0.0,0.0,1.0,-7.64832366257906e-05,-0.0019731144420802593,-0.00066991476342082,1.2184696791468346e-07,0.0,0.0,0.0,1.2184696791468346e-07,0.0,0.0,0.0,1.2184696791468346e-07,0.16671305,0.7256921000000013,9.7478101,8.999999999999999e-08,0.0,0.0,0.0,8.999999999999999e-08,0.0,0.0,0.0,8.999999999999999e-08
1728920419.7699397,229537,1728920419,748800192,base_link,-0.021476792448124508,0.03210785940393958,0.6887959909192953,-0.7239253522595703,1.0,0.0,0.0,0.0,1.0,0.0,0.0,0.0,1.0,0.00043923058547079563,-4.9472786486148794e-05,0.0003399307606741786,1.2184696791468346e-07,0.0,0.0,0.0,1.2184696791468346e-07,0.0,0.0,0.0,1.2184696791468346e-07,0.16671305,0.7256921000000013,9.7478101,8.999999999999999e-08,0.0,0.0,0.0,8.999999999999999e-08,0.0,0.0,0.0,8.999999999999999e-08
1728920419.8700306,229538,1728920419,848977088,base_link,-0.02147055031471187,0.032113953689818134,0.6887918233677373,-0.72392923239039,1.0,0.0,0.0,0.0,1.0,0.0,0.0,0.0,1.0,-7.962738163769245e-05,-0.0006150908302515743,0.001984312431886792,1.2184696791468346e-07,0.0,0.0,0.0,1.2184696791468346e-07,0.0,0.0,0.0,1.2184696791468346e-07,0.16671305,0.7453054000000012,9.73800345,8.999999999999999e-08,0.0,0.0,0.0,8.999999999999999e-08,0.0,0.0,0.0,8.999999999999999e-08
1728920419.967188,229539,1728920419,947153216,base_link,-0.021458024302059255,0.03210300086308996,0.6887916430369816,-0.7239302611516195,1.0,0.0,0.0,0.0,1.0,0.0,0.0,0.0,1.0,-0.0017591759096831083,4.1771563701331534e-05,-0.0006670020520687103,1.2184696791468346e-07,0.0,0.0,0.0,1.2184696791468346e-07,0.0,0.0,0.0,1.2184696791468346e-07,0.16671305,0.7453054000000012,9.73800345,8.999999999999999e-08,0.0,0.0,0.0,8.999999999999999e-08,0.0,0.0,0.0,8.999999999999999e-08
1728920420.068929,229540,1728920420,47328576,base_link,-0.021478956288403864,0.03211103761471754,0.6887946334350119,-0.7239264387016092,1.0,0.0,0.0,0.0,1.0,0.0,0.0,0.0,1.0,0.0007288267370313406,0.001207379507832229,-0.0017686085775494578,1.2184696791468346e-07,0.0,0.0,0.0,1.2184696791468346e-07,0.0,0.0,0.0,1.2184696791468346e-07,0.16671305,0.7453054000000012,9.73800345,8.999999999999999e-08,0.0,0.0,0.0,8.999999999999999e-08,0.0,0.0,0.0,8.999999999999999e-08
1728920420.1711504,229541,1728920420,149503936,base_link,-0.02147094876293481,0.03209249796838963,0.6888011961141186,-0.7239212541189322,1.0,0.0,0.0,0.0,1.0,0.0,0.0,0.0,1.0,-0.0005971679929643869,3.363424912095077e-05,0.0005328670376911759,1.2184696791468346e-07,0.0,0.0,0.0,1.2184696791468346e-07,0.0,0.0,0.0,1.2184696791468346e-07,0.16671305,0.7453054000000012,9.73800345,8.999999999999999e-08,0.0,0.0,0.0,8.999999999999999e-08,0.0,0.0,0.0,8.999999999999999e-08
1728920420.268411,229542,1728920420,247678272,base_link,-0.021484497056874108,0.032085799320684644,0.688786463345435,-0.7239351668348856,1.0,0.0,0.0,0.0,1.0,0.0,0.0,0.0,1.0,-0.000641913153231144,-0.00013370846863836034,0.0012405565939843655,1.2184696791468346e-07,0.0,0.0,0.0,1.2184696791468346e-07,0.0,0.0,0.0,1.2184696791468346e-07,0.16671305,0.7453054000000012,9.73800345,8.999999999999999e-08,0.0,0.0,0.0,8.999999999999999e-08,0.0,0.0,0.0,8.999999999999999e-08
1728920420.3718162,229543,1728920420,349854144,base_link,-0.021482030751896603,0.03206403507122943,0.6887885918063678,-0.723934179195268,1.0,0.0,0.0,0.0,1.0,0.0,0.0,0.0,1.0,-0.0006053212564438581,0.001108338008634746,-5.294568836689131e-06,1.2184696791468346e-07,0.0,0.0,0.0,1.2184696791468346e-07,0.0,0.0,0.0,1.2184696791468346e-07,0.14709975,0.7256921000000013,9.75761675,8.999999999999999e-08,0.0,0.0,0.0,8.999999999999999e-08,0.0,0.0,0.0,8.999999999999999e-08
1728920420.4682338,229544,1728920420,448028992,base_link,-0.021483450764028533,0.03207310247148712,0.688807011508651,-0.7239162094729225,1.0,0.0,0.0,0.0,1.0,0.0,0.0,0.0,1.0,6.108428351581097e-05,0.0006567378295585513,0.0003410180797800421,1.2184696791468346e-07,0.0,0.0,0.0,1.2184696791468346e-07,0.0,0.0,0.0,1.2184696791468346e-07,0.14709975,0.7256921000000013,9.75761675,8.999999999999999e-08,0.0,0.0,0.0,8.999999999999999e-08,0.0,0.0,0.0,8.999999999999999e-08
1728920420.578284,229545,1728920420,550203584,base_link,-0.02146644125238349,0.03207802552738306,0.6888026435529008,-0.7239206520142646,1.0,0.0,0.0,0.0,1.0,0.0,0.0,0.0,1.0,-0.0006715434137731791,-0.001797668170183897,0.0004465506644919517,1.2184696791468346e-07,0.0,0.0,0.0,1.2184696791468346e-07,0.0,0.0,0.0,1.2184696791468346e-07,0.14709975,0.7256921000000013,9.75761675,8.999999999999999e-08,0.0,0.0,0.0,8.999999999999999e-08,0.0,0.0,0.0,8.999999999999999e-08
1728920420.6692042,229546,1728920420,648377152,base_link,-0.021478328155411983,0.03209107082844682,0.688804197018188,-0.7239182431482586,1.0,0.0,0.0,0.0,1.0,0.0,0.0,0.0,1.0,-0.0007947294507175684,0.0004124465631321071,-0.0011799868661910295,1.2184696791468346e-07,0.0,0.0,0.0,1.2184696791468346e-07,0.0,0.0,0.0,1.2184696791468346e-07,0.14709975,0.7256921000000013,9.75761675,8.999999999999999e-08,0.0,0.0,0.0,8.999999999999999e-08,0.0,0.0,0.0,8.999999999999999e-08
1728920420.7714016,229547,1728920420,750550464,base_link,-0.021473287828973432,0.03207946445842574,0.6887858097198343,-0.723936402039894,1.0,0.0,0.0,0.0,1.0,0.0,0.0,0.0,1.0,0.00022325431928038597,0.00025124126113951206,0.00014879391528666017,1.2184696791468346e-07,0.0,0.0,0.0,1.2184696791468346e-07,0.0,0.0,0.0,1.2184696791468346e-07,0.14709975,0.7256921000000013,9.75761675,8.999999999999999e-08,0.0,0.0,0.0,8.999999999999999e-08,0.0,0.0,0.0,8.999999999999999e-08
1728920420.8690672,229548,1728920420,848723264,base_link,-0.021476015919336327,0.032058541778653624,0.6887752801459368,-0.7239472661037852,1.0,0.0,0.0,0.0,1.0,0.0,0.0,0.0,1.0,-0.00039518321864306927,0.000571366457734257,-0.0001545527484267951,1.2184696791468346e-07,0.0,0.0,0.0,1.2184696791468346e-07,0.0,0.0,0.0,1.2184696791468346e-07,0.16671305,0.7354987500000013,9.7478101,8.999999999999999e-08,0.0,0.0,0.0,8.999999999999999e-08,0.0,0.0,0.0,8.999999999999999e-08
1728920420.971116,229549,1728920420,948896576,base_link,-0.021476558450733672,0.03204134562213294,0.6887959484089364,-0.7239283466360943,1.0,0.0,0.0,0.0,1.0,0.0,0.0,0.0,1.0,-0.0005214835982769728,0.00021977617871016264,-7.153348997235301e-05,1.2184696791468346e-07,0.0,0.0,0.0,1.2184696791468346e-07,0.0,0.0,0.0,1.2184696791468346e-07,0.16671305,0.7354987500000013,9.7478101,8.999999999999999e-08,0.0,0.0,0.0,8.999999999999999e-08,0.0,0.0,0.0,8.999999999999999e-08
1728920421.070498,229550,1728920421,49072704,base_link,-0.021498331875126838,0.03208080939848398,0.6887705278303654,-0.723950138743826,1.0,0.0,0.0,0.0,1.0,0.0,0.0,0.0,1.0,0.0017379980999976397,0.0008805191027931871,0.0014628212666139007,1.2184696791468346e-07,0.0,0.0,0.0,1.2184696791468346e-07,0.0,0.0,0.0,1.2184696791468346e-07,0.16671305,0.7354987500000013,9.7478101,8.999999999999999e-08,0.0,0.0,0.0,8.999999999999999e-08,0.0,0.0,0.0,8.999999999999999e-08
1728920421.1741142,229551,1728920421,151248576,base_link,-0.02146936148646442,0.03206191121206034,0.6887796212409544,-0.7239431840482794,1.0,0.0,0.0,0.0,1.0,0.0,0.0,0.0,1.0,-0.0005707242526113987,0.0009852329967543483,0.00058510759845376,1.2184696791468346e-07,0.0,0.0,0.0,1.2184696791468346e-07,0.0,0.0,0.0,1.2184696791468346e-07,0.16671305,0.7354987500000013,9.7478101,8.999999999999999e-08,0.0,0.0,0.0,8.999999999999999e-08,0.0,0.0,0.0,8.999999999999999e-08
1728920421.270385,229552,1728920421,249425472,base_link,-0.021488945541271762,0.03203823013085654,0.6887806183494947,-0.7239427027159638,1.0,0.0,0.0,0.0,1.0,0.0,0.0,0.0,1.0,-5.8575766161084175e-05,0.0007723409798927604,-0.0007026840467005969,1.2184696791468346e-07,0.0,0.0,0.0,1.2184696791468346e-07,0.0,0.0,0.0,1.2184696791468346e-07,0.16671305,0.7354987500000013,9.7478101,8.999999999999999e-08,0.0,0.0,0.0,8.999999999999999e-08,0.0,0.0,0.0,8.999999999999999e-08
1728920421.3700776,229553,1728920421,349601600,base_link,-0.021516320796959136,0.03204882083334383,0.6887668969906219,-0.7239544755248527,1.0,0.0,0.0,0.0,1.0,0.0,0.0,0.0,1.0,-0.0003944018390029669,-0.00033501186408102507,0.00039463653229177004,1.2184696791468346e-07,0.0,0.0,0.0,1.2184696791468346e-07,0.0,0.0,0.0,1.2184696791468346e-07,0.16671305,0.7354987500000013,9.75761675,8.999999999999999e-08,0.0,0.0,0.0,8.999999999999999e-08,0.0,0.0,0.0,8.999999999999999e-08
1728920421.4729705,229554,1728920421,451777728,base_link,-0.021528108870157946,0.03204177604852409,0.6887718834391137,-0.7239496927963067,1.0,0.0,0.0,0.0,1.0,0.0,0.0,0.0,1.0,-0.00015130196698009968,0.0014710084069520235,-8.763023652136343e-05,1.2184696791468346e-07,0.0,0.0,0.0,1.2184696791468346e-07,0.0,0.0,0.0,1.2184696791468346e-07,0.16671305,0.7354987500000013,9.75761675,8.999999999999999e-08,0.0,0.0,0.0,8.999999999999999e-08,0.0,0.0,0.0,8.999999999999999e-08
1728920421.5728927,229555,1728920421,551953088,base_link,-0.021512093981541757,0.03206809496650076,0.6887466519341594,-0.7239730081620686,1.0,0.0,0.0,0.0,1.0,0.0,0.0,0.0,1.0,-0.0010807444341480732,-0.0005641349125653504,0.001268251333385706,1.2184696791468346e-07,0.0,0.0,0.0,1.2184696791468346e-07,0.0,0.0,0.0,1.2184696791468346e-07,0.16671305,0.7354987500000013,9.75761675,8.999999999999999e-08,0.0,0.0,0.0,8.999999999999999e-08,0.0,0.0,0.0,8.999999999999999e-08
1728920421.6710465,229556,1728920421,650127424,base_link,-0.021514451457233633,0.03210966497279234,0.6887467199997593,-0.7239710308316226,1.0,0.0,0.0,0.0,1.0,0.0,0.0,0.0,1.0,-0.0005123792216181755,-3.6473735235631405e-05,0.0005164406029507518,1.2184696791468346e-07,0.0,0.0,0.0,1.2184696791468346e-07,0.0,0.0,0.0,1.2184696791468346e-07,0.16671305,0.7354987500000013,9.75761675,8.999999999999999e-08,0.0,0.0,0.0,8.999999999999999e-08,0.0,0.0,0.0,8.999999999999999e-08
1728920421.7703831,229557,1728920421,750301760,base_link,-0.021542979794387823,0.03212970081947124,0.6887257325770901,-0.7239892593353717,1.0,0.0,0.0,0.0,1.0,0.0,0.0,0.0,1.0,0.0009293293114751577,-9.496207349002359e-05,0.00027314957696944475,1.2184696791468346e-07,0.0,0.0,0.0,1.2184696791468346e-07,0.0,0.0,0.0,1.2184696791468346e-07,0.16671305,0.7354987500000013,9.75761675,8.999999999999999e-08,0.0,0.0,0.0,8.999999999999999e-08,0.0,0.0,0.0,8.999999999999999e-08
1728920421.873238,229558,1728920421,852477120,base_link,-0.021523301347784848,0.032132804870233,0.6887319061810355,-0.7239838339068776,1.0,0.0,0.0,0.0,1.0,0.0,0.0,0.0,1.0,-0.00022676796652376652,-0.0005512001225724816,0.00022110622376203542,1.2184696791468346e-07,0.0,0.0,0.0,1.2184696791468346e-07,0.0,0.0,0.0,1.2184696791468346e-07,0.1569064,0.7256921000000013,9.75761675,8.999999999999999e-08,0.0,0.0,0.0,8.999999999999999e-08,0.0,0.0,0.0,8.999999999999999e-08
1728920421.9712422,229559,1728920421,950651968,base_link,-0.021530325351768735,0.03214530815409744,0.6887339179486534,-0.7239811561919431,1.0,0.0,0.0,0.0,1.0,0.0,0.0,0.0,1.0,-0.0004433800932019949,-0.0010366784408688545,0.0002635476412251593,1.2184696791468346e-07,0.0,0.0,0.0,1.2184696791468346e-07,0.0,0.0,0.0,1.2184696791468346e-07,0.1569064,0.7256921000000013,9.75761675,8.999999999999999e-08,0.0,0.0,0.0,8.999999999999999e-08,0.0,0.0,0.0,8.999999999999999e-08
1728920422.0711293,229560,1728920422,50825792,base_link,-0.02152899573581993,0.03214588631235891,0.6887350152603922,-0.7239801261706479,1.0,0.0,0.0,0.0,1.0,0.0,0.0,0.0,1.0,-0.00040265219286084175,0.000936372554861009,-0.001319478498771787,1.2184696791468346e-07,0.0,0.0,0.0,1.2184696791468346e-07,0.0,0.0,0.0,1.2184696791468346e-07,0.1569064,0.7256921000000013,9.75761675,8.999999999999999e-08,0.0,0.0,0.0,8.999999999999999e-08,0.0,0.0,0.0,8.999999999999999e-08
1728920422.1740806,229561,1728920422,152999616,base_link,-0.02153695144532177,0.03215628776581964,0.6887368643442467,-0.7239776685594786,1.0,0.0,0.0,0.0,1.0,0.0,0.0,0.0,1.0,0.001121680485084653,3.106147050857536e-05,-0.0006523220799863338,1.2184696791468346e-07,0.0,0.0,0.0,1.2184696791468346e-07,0.0,0.0,0.0,1.2184696791468346e-07,0.1569064,0.7256921000000013,9.75761675,8.999999999999999e-08,0.0,0.0,0.0,8.999999999999999e-08,0.0,0.0,0.0,8.999999999999999e-08
1728920422.2714365,229562,1728920422,251172672,base_link,-0.021559922030579694,0.032146855206251435,0.6887342662215952,-0.7239798754071722,1.0,0.0,0.0,0.0,1.0,0.0,0.0,0.0,1.0,-0.00030239089392125607,0.0007711591897532344,0.0002604051260277628,1.2184696791468346e-07,0.0,0.0,0.0,1.2184696791468346e-07,0.0,0.0,0.0,1.2184696791468346e-07,0.1569064,0.7256921000000013,9.75761675,8.999999999999999e-08,0.0,0.0,0.0,8.999999999999999e-08,0.0,0.0,0.0,8.999999999999999e-08
1728920422.3740218,229563,1728920422,353345472,base_link,-0.021591335900666933,0.03216441627423185,0.6887368978441429,-0.7239756557286918,1.0,0.0,0.0,0.0,1.0,0.0,0.0,0.0,1.0,0.0016591292805969715,0.0003506875364109875,0.0006936261197552085,1.2184696791468346e-07,0.0,0.0,0.0,1.2184696791468346e-07,0.0,0.0,0.0,1.2184696791468346e-07,0.16671305,0.7354987500000013,9.7478101,8.999999999999999e-08,0.0,0.0,0.0,8.999999999999999e-08,0.0,0.0,0.0,8.999999999999999e-08
1728920422.4722412,229564,1728920422,451519296,base_link,-0.021611652684152924,0.03214501318200675,0.6887600834183671,-0.723953853560648,1.0,0.0,0.0,0.0,1.0,0.0,0.0,0.0,1.0,-0.0007905792444944382,-0.0002386199776083233,-0.001484582433477044,1.2184696791468346e-07,0.0,0.0,0.0,1.2184696791468346e-07,0.0,0.0,0.0,1.2184696791468346e-07,0.16671305,0.7354987500000013,9.7478101,8.999999999999999e-08,0.0,0.0,0.0,8.999999999999999e-08,0.0,0.0,0.0,8.999999999999999e-08
1728920422.5761206,229565,1728920422,553696192,base_link,-0.021609579112447447,0.03217429998380207,0.6887531986608568,-0.7239591644875928,1.0,0.0,0.0,0.0,1.0,0.0,0.0,0.0,1.0,3.509502857923508e-05,0.000490777427330613,-0.0008186483755707742,1.2184696791468346e-07,0.0,0.0,0.0,1.2184696791468346e-07,0.0,0.0,0.0,1.2184696791468346e-07,0.16671305,0.7354987500000013,9.7478101,8.999999999999999e-08,0.0,0.0,0.0,8.999999999999999e-08,0.0,0.0,0.0,8.999999999999999e-08
1728920422.6743855,229566,1728920422,653871808,base_link,-0.02161263836019034,0.03214174133083806,0.688754271311523,-0.7239594989206689,1.0,0.0,0.0,0.0,1.0,0.0,0.0,0.0,1.0,-0.0007824690546840429,-0.0005589765496551992,-0.0005486011505126952,1.2184696791468346e-07,0.0,0.0,0.0,1.2184696791468346e-07,0.0,0.0,0.0,1.2184696791468346e-07,0.16671305,0.7354987500000013,9.7478101,8.999999999999999e-08,0.0,0.0,0.0,8.999999999999999e-08,0.0,0.0,0.0,8.999999999999999e-08
1728920422.7949266,229567,1728920422,752048192,base_link,-0.021633765009007037,0.0321593287278735,0.6887469677015969,-0.7239650352531972,1.0,0.0,0.0,0.0,1.0,0.0,0.0,0.0,1.0,-0.0004986722487956285,0.00013625156134366992,0.0003261967794969678,1.2184696791468346e-07,0.0,0.0,0.0,1.2184696791468346e-07,0.0,0.0,0.0,1.2184696791468346e-07,0.16671305,0.7354987500000013,9.7478101,8.999999999999999e-08,0.0,0.0,0.0,8.999999999999999e-08,0.0,0.0,0.0,8.999999999999999e-08
1728920422.8719947,229568,1728920422,852224320,base_link,-0.021616314162802106,0.032164261604355135,0.6887510677522892,-0.7239614367544331,1.0,0.0,0.0,0.0,1.0,0.0,0.0,0.0,1.0,-0.0002404889091849327,0.0006838232511654496,-0.00020365836098790177,1.2184696791468346e-07,0.0,0.0,0.0,1.2184696791468346e-07,0.0,0.0,0.0,1.2184696791468346e-07,0.1569064,0.7453054000000012,9.7281968,8.999999999999999e-08,0.0,0.0,0.0,8.999999999999999e-08,0.0,0.0,0.0,8.999999999999999e-08
1728920422.9732528,229569,1728920422,952399936,base_link,-0.02158699966344636,0.03216418389038871,0.6887586020332654,-0.7239551469845197,1.0,0.0,0.0,0.0,1.0,0.0,0.0,0.0,1.0,-0.00043531344272196293,-0.000984866637736559,-0.00025151576846837987,1.2184696791468346e-07,0.0,0.0,0.0,1.2184696791468346e-07,0.0,0.0,0.0,1.2184696791468346e-07,0.1569064,0.7453054000000012,9.7281968,8.999999999999999e-08,0.0,0.0,0.0,8.999999999999999e-08,0.0,0.0,0.0,8.999999999999999e-08
1728920423.0735388,229570,1728920423,52574528,base_link,-0.021585660430615917,0.03218331984799632,0.6887435440761456,-0.7239686620847385,1.0,0.0,0.0,0.0,1.0,0.0,0.0,0.0,1.0,0.00036034733057022095,-0.000780959497205913,0.0009771158220246434,1.2184696791468346e-07,0.0,0.0,0.0,1.2184696791468346e-07,0.0,0.0,0.0,1.2184696791468346e-07,0.1569064,0.7453054000000012,9.7281968,8.999999999999999e-08,0.0,0.0,0.0,8.999999999999999e-08,0.0,0.0,0.0,8.999999999999999e-08
1728920423.1731157,229571,1728920423,152748864,base_link,-0.02158948898008348,0.03219871383022153,0.6887264959010219,-0.7239840817567458,1.0,0.0,0.0,0.0,1.0,0.0,0.0,0.0,1.0,0.0007779202423989773,7.945054676383736e-05,0.00020155461970716715,1.2184696791468346e-07,0.0,0.0,0.0,1.2184696791468346e-07,0.0,0.0,0.0,1.2184696791468346e-07,0.1569064,0.7453054000000012,9.7281968,8.999999999999999e-08,0.0,0.0,0.0,8.999999999999999e-08,0.0,0.0,0.0,8.999999999999999e-08
1728920423.2762232,229572,1728920423,254924480,base_link,-0.021585655365456185,0.032178220776047615,0.6887215695036906,-0.7239897936369717,1.0,0.0,0.0,0.0,1.0,0.0,0.0,0.0,1.0,-0.0012465177569538355,0.00046520010801032186,-6.648362614214426e-05,1.2184696791468346e-07,0.0,0.0,0.0,1.2184696791468346e-07,0.0,0.0,0.0,1.2184696791468346e-07,0.1569064,0.7453054000000012,9.7281968,8.999999999999999e-08,0.0,0.0,0.0,8.999999999999999e-08,0.0,0.0,0.0,8.999999999999999e-08
1728920423.3735404,229573,1728920423,353099328,base_link,-0.021578288515518386,0.03221279239228973,0.6887223914676527,-0.723987693930021,1.0,0.0,0.0,0.0,1.0,0.0,0.0,0.0,1.0,0.00013949209824204445,-0.00170755828730762,0.0003418398555368187,1.2184696791468346e-07,0.0,0.0,0.0,1.2184696791468346e-07,0.0,0.0,0.0,1.2184696791468346e-07,0.1569064,0.7551120500000013,9.75761675,8.999999999999999e-08,0.0,0.0,0.0,8.999999999999999e-08,0.0,0.0,0.0,8.999999999999999e-08
1728920423.4762144,229574,1728920423,455273664,base_link,-0.021556112980654157,0.03220353832106645,0.6887433115406489,-0.7239688646073044,1.0,0.0,0.0,0.0,1.0,0.0,0.0,0.0,1.0,-0.0004844539798796177,-0.0009121829643845559,-0.0006708395667374133,1.2184696791468346e-07,0.0,0.0,0.0,1.2184696791468346e-07,0.0,0.0,0.0,1.2184696791468346e-07,0.1569064,0.7551120500000013,9.75761675,8.999999999999999e-08,0.0,0.0,0.0,8.999999999999999e-08,0.0,0.0,0.0,8.999999999999999e-08
1728920423.5743825,229575,1728920423,553447488,base_link,-0.021550080456623544,0.03218975420516955,0.6887424832171984,-0.7239704452312478,1.0,0.0,0.0,0.0,1.0,0.0,0.0,0.0,1.0,0.00014606164768338203,0.0005581461009569466,-0.00015708105638623246,1.2184696791468346e-07,0.0,0.0,0.0,1.2184696791468346e-07,0.0,0.0,0.0,1.2184696791468346e-07,0.1569064,0.7551120500000013,9.75761675,8.999999999999999e-08,0.0,0.0,0.0,8.999999999999999e-08,0.0,0.0,0.0,8.999999999999999e-08
1728920423.67654,229576,1728920423,653621056,base_link,-0.02155999984269835,0.03219781488169156,0.6887411551991363,-0.7239710548485943,1.0,0.0,0.0,0.0,1.0,0.0,0.0,0.0,1.0,-0.0003668649587780237,0.0009115692228078842,0.00033527170307934273,1.2184696791468346e-07,0.0,0.0,0.0,1.2184696791468346e-07,0.0,0.0,0.0,1.2184696791468346e-07,0.1569064,0.7551120500000013,9.75761675,8.999999999999999e-08,0.0,0.0,0.0,8.999999999999999e-08,0.0,0.0,0.0,8.999999999999999e-08
1728920423.7742634,229577,1728920423,753793600,base_link,-0.021585602637238275,0.032209912354522675,0.6887532016291349,-0.7239582933778143,1.0,0.0,0.0,0.0,1.0,0.0,0.0,0.0,1.0,0.00017363019287586212,0.0010669876355677843,-0.00042996928095817577,1.2184696791468346e-07,0.0,0.0,0.0,1.2184696791468346e-07,0.0,0.0,0.0,1.2184696791468346e-07,0.1569064,0.7551120500000013,9.75761675,8.999999999999999e-08,0.0,0.0,0.0,8.999999999999999e-08,0.0,0.0,0.0,8.999999999999999e-08
1728920423.8768964,229578,1728920423,855969472,base_link,-0.02157949408507016,0.03222888370220565,0.6887638188174361,-0.7239475301279538,1.0,0.0,0.0,0.0,1.0,0.0,0.0,0.0,1.0,0.0001804425846785307,-0.0004727911436930299,8.570961654186306e-06,1.2184696791468346e-07,0.0,0.0,0.0,1.2184696791468346e-07,0.0,0.0,0.0,1.2184696791468346e-07,0.16671305,0.7354987500000013,9.75761675,8.999999999999999e-08,0.0,0.0,0.0,8.999999999999999e-08,0.0,0.0,0.0,8.999999999999999e-08
1728920423.9741786,229579,1728920423,954144832,base_link,-0.02156187768440636,0.032220827806747156,0.6887712858516132,-0.7239413094115336,1.0,0.0,0.0,0.0,1.0,0.0,0.0,0.0,1.0,-0.0002232193946838379,-0.001729417941533029,-0.0006616562604904173,1.2184696791468346e-07,0.0,0.0,0.0,1.2184696791468346e-07,0.0,0.0,0.0,1.2184696791468346e-07,0.16671305,0.7354987500000013,9.75761675,8.999999999999999e-08,0.0,0.0,0.0,8.999999999999999e-08,0.0,0.0,0.0,8.999999999999999e-08
1728920424.0747337,229580,1728920424,54319680,base_link,-0.021588930263180532,0.03223611405016736,0.6887797262804133,-0.7239317921642308,1.0,0.0,0.0,0.0,1.0,0.0,0.0,0.0,1.0,0.00029793987050652504,0.00015187042299658055,-0.000518701272085309,1.2184696791468346e-07,0.0,0.0,0.0,1.2184696791468346e-07,0.0,0.0,0.0,1.2184696791468346e-07,0.16671305,0.7354987500000013,9.75761675,8.999999999999999e-08,0.0,0.0,0.0,8.999999999999999e-08,0.0,0.0,0.0,8.999999999999999e-08
1728920424.1770778,229581,1728920424,156495552,base_link,-0.02162349308624316,0.03224168196076612,0.688785762162261,-0.7239247698025282,1.0,0.0,0.0,0.0,1.0,0.0,0.0,0.0,1.0,0.0010457716416567564,-0.0005555344978347422,-0.0012284466065466404,1.2184696791468346e-07,0.0,0.0,0.0,1.2184696791468346e-07,0.0,0.0,0.0,1.2184696791468346e-07,0.16671305,0.7354987500000013,9.75761675,8.999999999999999e-08,0.0,0.0,0.0,8.999999999999999e-08,0.0,0.0,0.0,8.999999999999999e-08
1728920424.275308,229582,1728920424,254671168,base_link,-0.021604717447187397,0.03222546586297138,0.6887928301279497,-0.7239193274794309,1.0,0.0,0.0,0.0,1.0,0.0,0.0,0.0,1.0,-0.0005549301858991385,0.0005522751016542317,0.0006264512194320558,1.2184696791468346e-07,0.0,0.0,0.0,1.2184696791468346e-07,0.0,0.0,0.0,1.2184696791468346e-07,0.16671305,0.7354987500000013,9.75761675,8.999999999999999e-08,0.0,0.0,0.0,8.999999999999999e-08,0.0,0.0,0.0,8.999999999999999e-08
1728920424.3769,229583,1728920424,356846272,base_link,-0.021625815580224732,0.03219421227719079,0.6887951334447895,-0.7239178965456758,1.0,0.0,0.0,0.0,1.0,0.0,0.0,0.0,1.0,-0.00022825621999800205,0.0002041461411863566,0.0005286401137709618,1.2184696791468346e-07,0.0,0.0,0.0,1.2184696791468346e-07,0.0,0.0,0.0,1.2184696791468346e-07,0.1569064,0.7354987500000013,9.7478101,8.999999999999999e-08,0.0,0.0,0.0,8.999999999999999e-08,0.0,0.0,0.0,8.999999999999999e-08
1728920424.4771938,229584,1728920424,455020608,base_link,-0.021627440597416454,0.03222682832565459,0.6887789309099248,-0.7239318128690402,1.0,0.0,0.0,0.0,1.0,0.0,0.0,0.0,1.0,-7.52320047467947e-05,-0.0013614118797704575,0.0013687456957995894,1.2184696791468346e-07,0.0,0.0,0.0,1.2184696791468346e-07,0.0,0.0,0.0,1.2184696791468346e-07,0.1569064,0.7354987500000013,9.7478101,8.999999999999999e-08,0.0,0.0,0.0,8.999999999999999e-08,0.0,0.0,0.0,8.999999999999999e-08
1728920424.5762544,229585,1728920424,555194688,base_link,-0.021622399689476872,0.032242189267259094,0.688773467849111,-0.7239364772202271,1.0,0.0,0.0,0.0,1.0,0.0,0.0,0.0,1.0,-0.0006558033637702465,0.0010301985312253237,-0.00033912784419953834,1.2184696791468346e-07,0.0,0.0,0.0,1.2184696791468346e-07,0.0,0.0,0.0,1.2184696791468346e-07,0.1569064,0.7354987500000013,9.7478101,8.999999999999999e-08,0.0,0.0,0.0,8.999999999999999e-08,0.0,0.0,0.0,8.999999999999999e-08
1728920424.6788304,229586,1728920424,657367744,base_link,-0.021644531133561754,0.032248459841641396,0.688764007476098,-0.7239445373198945,1.0,0.0,0.0,0.0,1.0,0.0,0.0,0.0,1.0,0.0005516801029443741,0.001414093654602766,0.00026419188361614926,1.2184696791468346e-07,0.0,0.0,0.0,1.2184696791468346e-07,0.0,0.0,0.0,1.2184696791468346e-07,0.1569064,0.7354987500000013,9.7478101,8.999999999999999e-08,0.0,0.0,0.0,8.999999999999999e-08,0.0,0.0,0.0,8.999999999999999e-08
1728920424.776198,229587,1728920424,755542336,base_link,-0.02166709598786667,0.03229477928296336,0.6887481937038404,-0.723956842534287,1.0,0.0,0.0,0.0,1.0,0.0,0.0,0.0,1.0,0.0010695010423660278,0.0003195109311491252,0.0009887359337881207,1.2184696791468346e-07,0.0,0.0,0.0,1.2184696791468346e-07,0.0,0.0,0.0,1.2184696791468346e-07,0.1569064,0.7354987500000013,9.7478101,8.999999999999999e-08,0.0,0.0,0.0,8.999999999999999e-08,0.0,0.0,0.0,8.999999999999999e-08
1728920424.876828,229588,1728920424,855715904,base_link,-0.021638311685738574,0.03225726374826141,0.6887470954322272,-0.7239604208356534,1.0,0.0,0.0,0.0,1.0,0.0,0.0,0.0,1.0,-0.0017397775081917644,0.001099250162951648,-0.0012318710796535017,1.2184696791468346e-07,0.0,0.0,0.0,1.2184696791468346e-07,0.0,0.0,0.0,1.2184696791468346e-07,0.1569064,0.7354987500000013,9.7478101,8.999999999999999e-08,0.0,0.0,0.0,8.999999999999999e-08,0.0,0.0,0.0,8.999999999999999e-08
1728920424.9985359,229589,1728920424,957888704,base_link,-0.021648014774457127,0.032263634300141265,0.6887219061537709,-0.723983810138036,1.0,0.0,0.0,0.0,1.0,0.0,0.0,0.0,1.0,8.769799023866653e-06,2.337980549782515e-05,4.032556898891926e-05,1.2184696791468346e-07,0.0,0.0,0.0,1.2184696791468346e-07,0.0,0.0,0.0,1.2184696791468346e-07,0.1569064,0.7354987500000013,9.7478101,8.999999999999999e-08,0.0,0.0,0.0,8.999999999999999e-08,0.0,0.0,0.0,8.999999999999999e-08
1728920425.0763159,229590,1728920425,56061248,base_link,-0.0216551308541823,0.032290931518189105,0.6887232285673419,-0.7239811223237473,1.0,0.0,0.0,0.0,1.0,0.0,0.0,0.0,1.0,0.000612510833889246,-0.00035778584424406274,0.0011069838656112552,1.2184696791468346e-07,0.0,0.0,0.0,1.2184696791468346e-07,0.0,0.0,0.0,1.2184696791468346e-07,0.1569064,0.7354987500000013,9.7478101,8.999999999999999e-08,0.0,0.0,0.0,8.999999999999999e-08,0.0,0.0,0.0,8.999999999999999e-08
1728920425.176203,229591,1728920425,156233536,base_link,-0.021674566179705777,0.03230408803177764,0.6887260661949083,-0.7239772543533695,1.0,0.0,0.0,0.0,1.0,0.0,0.0,0.0,1.0,-0.0011972009669989347,0.00020859495270997272,-0.0011367220431566238,1.2184696791468346e-07,0.0,0.0,0.0,1.2184696791468346e-07,0.0,0.0,0.0,1.2184696791468346e-07,0.1569064,0.7354987500000013,9.7478101,8.999999999999999e-08,0.0,0.0,0.0,8.999999999999999e-08,0.0,0.0,0.0,8.999999999999999e-08
1728920425.2762456,229592,1728920425,256405056,base_link,-0.021699911848782633,0.03229053357511692,0.6887245247473468,-0.7239785661735646,1.0,0.0,0.0,0.0,1.0,0.0,0.0,0.0,1.0,-0.0006738957017660141,0.002300730673596263,-0.0008846793789416555,1.2184696791468346e-07,0.0,0.0,0.0,1.2184696791468346e-07,0.0,0.0,0.0,1.2184696791468346e-07,0.1569064,0.7354987500000013,9.7478101,8.999999999999999e-08,0.0,0.0,0.0,8.999999999999999e-08,0.0,0.0,0.0,8.999999999999999e-08
1728920425.3772619,229593,1728920425,356575808,base_link,-0.021702694147663588,0.03230030157793412,0.6887381567336021,-0.7239650786080137,1.0,0.0,0.0,0.0,1.0,0.0,0.0,0.0,1.0,-0.0006910958327353001,0.0006698816432617604,-0.0010401606559753418,1.2184696791468346e-07,0.0,0.0,0.0,1.2184696791468346e-07,0.0,0.0,0.0,1.2184696791468346e-07,0.16671305,0.7354987500000013,9.7478101,8.999999999999999e-08,0.0,0.0,0.0,8.999999999999999e-08,0.0,0.0,0.0,8.999999999999999e-08
1728920425.4780352,229594,1728920425,456747328,base_link,-0.02168020234860905,0.032335932286754965,0.6887253612655291,-0.7239763345986775,1.0,0.0,0.0,0.0,1.0,0.0,0.0,0.0,1.0,-0.00017012259922921658,-0.001037860522046685,0.0011301556369289758,1.2184696791468346e-07,0.0,0.0,0.0,1.2184696791468346e-07,0.0,0.0,0.0,1.2184696791468346e-07,0.16671305,0.7354987500000013,9.7478101,8.999999999999999e-08,0.0,0.0,0.0,8.999999999999999e-08,0.0,0.0,0.0,8.999999999999999e-08
1728920425.57769,229595,1728920425,556924736,base_link,-0.02170049193828581,0.032347937558086445,0.6887391404500988,-0.7239620818782112,1.0,0.0,0.0,0.0,1.0,0.0,0.0,0.0,1.0,0.0006046723574399948,0.001793493516743183,-0.0011458988301455977,1.2184696791468346e-07,0.0,0.0,0.0,1.2184696791468346e-07,0.0,0.0,0.0,1.2184696791468346e-07,0.16671305,0.7354987500000013,9.7478101,8.999999999999999e-08,0.0,0.0,0.0,8.999999999999999e-08,0.0,0.0,0.0,8.999999999999999e-08
1728920425.677932,229596,1728920425,657101376,base_link,-0.021695327914229404,0.03232382127303474,0.6887229797460518,-0.7239786878732843,1.0,0.0,0.0,0.0,1.0,0.0,0.0,0.0,1.0,-0.0007509759161621332,0.0007787583163008094,0.00019090226851403702,1.2184696791468346e-07,0.0,0.0,0.0,1.2184696791468346e-07,0.0,0.0,0.0,1.2184696791468346e-07,0.16671305,0.7354987500000013,9.7478101,8.999999999999999e-08,0.0,0.0,0.0,8.999999999999999e-08,0.0,0.0,0.0,8.999999999999999e-08
1728920425.777238,229597,1728920425,757277504,base_link,-0.021696906593744954,0.032311603873533795,0.6887391031105365,-0.7239638474025315,1.0,0.0,0.0,0.0,1.0,0.0,0.0,0.0,1.0,-0.0002305838279426098,0.0011639310978353024,-0.00029078614898026006,1.2184696791468346e-07,0.0,0.0,0.0,1.2184696791468346e-07,0.0,0.0,0.0,1.2184696791468346e-07,0.16671305,0.7354987500000013,9.7478101,8.999999999999999e-08,0.0,0.0,0.0,8.999999999999999e-08,0.0,0.0,0.0,8.999999999999999e-08
1728920425.8804286,229598,1728920425,859453120,base_link,-0.02170444612204603,0.03233216677701462,0.6887462675907672,-0.7239558873921985,1.0,0.0,0.0,0.0,1.0,0.0,0.0,0.0,1.0,0.00011416268534958363,0.00015573890414088954,-0.0008463149424642324,1.2184696791468346e-07,0.0,0.0,0.0,1.2184696791468346e-07,0.0,0.0,0.0,1.2184696791468346e-07,0.1569064,0.7354987500000013,9.7478101,8.999999999999999e-08,0.0,0.0,0.0,8.999999999999999e-08,0.0,0.0,0.0,8.999999999999999e-08
1728920425.978089,229599,1728920425,957628480,base_link,-0.02170811391423504,0.03231191689218394,0.6887567137522747,-0.7239467432609986,1.0,0.0,0.0,0.0,1.0,0.0,0.0,0.0,1.0,-0.00028314394876360893,-0.0003508881200104952,-3.9525097236037214e-05,1.2184696791468346e-07,0.0,0.0,0.0,1.2184696791468346e-07,0.0,0.0,0.0,1.2184696791468346e-07,0.1569064,0.7354987500000013,9.7478101,8.999999999999999e-08,0.0,0.0,0.0,8.999999999999999e-08,0.0,0.0,0.0,8.999999999999999e-08
1728920426.0888057,229600,1728920426,59804608,base_link,-0.021678272039718092,0.032310907649920895,0.6887578965261656,-0.7239465572409763,1.0,0.0,0.0,0.0,1.0,0.0,0.0,0.0,1.0,-0.00026617664843797684,-0.000730733503587544,-0.0004082396626472472,1.2184696791468346e-07,0.0,0.0,0.0,1.2184696791468346e-07,0.0,0.0,0.0,1.2184696791468346e-07,0.1569064,0.7354987500000013,9.7478101,8.999999999999999e-08,0.0,0.0,0.0,8.999999999999999e-08,0.0,0.0,0.0,8.999999999999999e-08
1728920426.1800609,229601,1728920426,159979968,base_link,-0.021682023415778223,0.032326708589491,0.6887541357536513,-0.7239493174626305,1.0,0.0,0.0,0.0,1.0,0.0,0.0,0.0,1.0,0.0013055752497166395,-0.0003333002096042036,0.0009853668743744493,1.2184696791468346e-07,0.0,0.0,0.0,1.2184696791468346e-07,0.0,0.0,0.0,1.2184696791468346e-07,0.1569064,0.7354987500000013,9.7478101,8.999999999999999e-08,0.0,0.0,0.0,8.999999999999999e-08,0.0,0.0,0.0,8.999999999999999e-08
1728920426.2812688,229602,1728920426,260154816,base_link,-0.02170126162875635,0.032317907279868885,0.6887493517013646,-0.7239536854272656,1.0,0.0,0.0,0.0,1.0,0.0,0.0,0.0,1.0,0.0006813490763306618,0.0009508824441581964,9.949621744453895e-05,1.2184696791468346e-07,0.0,0.0,0.0,1.2184696791468346e-07,0.0,0.0,0.0,1.2184696791468346e-07,0.1569064,0.7354987500000013,9.7478101,8.999999999999999e-08,0.0,0.0,0.0,8.999999999999999e-08,0.0,0.0,0.0,8.999999999999999e-08
1728920426.3784237,229603,1728920426,358329408,base_link,-0.021716070489790427,0.032312547156365876,0.68875045889866,-0.7239524272668995,1.0,0.0,0.0,0.0,1.0,0.0,0.0,0.0,1.0,0.00041722855530679226,-0.00017274147830903527,0.0002516659442335367,1.2184696791468346e-07,0.0,0.0,0.0,1.2184696791468346e-07,0.0,0.0,0.0,1.2184696791468346e-07,0.16671305,0.7256921000000013,9.73800345,8.999999999999999e-08,0.0,0.0,0.0,8.999999999999999e-08,0.0,0.0,0.0,8.999999999999999e-08
1728920426.4818995,229604,1728920426,460502976,base_link,-0.021710903571224256,0.0323138339751879,0.6887518703836598,-0.7239511819473433,1.0,0.0,0.0,0.0,1.0,0.0,0.0,0.0,1.0,0.0003118840977549553,0.0004176657530479132,-0.0008162122685462236,1.2184696791468346e-07,0.0,0.0,0.0,1.2184696791468346e-07,0.0,0.0,0.0,1.2184696791468346e-07,0.16671305,0.7256921000000013,9.73800345,8.999999999999999e-08,0.0,0.0,0.0,8.999999999999999e-08,0.0,0.0,0.0,8.999999999999999e-08
1728920426.5812602,229605,1728920426,560678592,base_link,-0.02171195933222367,0.03233810706370793,0.6887360496956938,-0.7239651176010228,1.0,0.0,0.0,0.0,1.0,0.0,0.0,0.0,1.0,0.0006018145941197872,0.0005838909419253469,0.00010227854363620274,1.2184696791468346e-07,0.0,0.0,0.0,1.2184696791468346e-07,0.0,0.0,0.0,1.2184696791468346e-07,0.16671305,0.7256921000000013,9.73800345,8.999999999999999e-08,0.0,0.0,0.0,8.999999999999999e-08,0.0,0.0,0.0,8.999999999999999e-08
1728920426.6795382,229606,1728920426,658853184,base_link,-0.021718939986923674,0.03233031760206642,0.6887307916110537,-0.7239702582954671,1.0,0.0,0.0,0.0,1.0,0.0,0.0,0.0,1.0,-3.8046855479478836e-06,0.0002612251555547119,0.0003666814882308244,1.2184696791468346e-07,0.0,0.0,0.0,1.2184696791468346e-07,0.0,0.0,0.0,1.2184696791468346e-07,0.16671305,0.7256921000000013,9.73800345,8.999999999999999e-08,0.0,0.0,0.0,8.999999999999999e-08,0.0,0.0,0.0,8.999999999999999e-08
1728920426.7794042,229607,1728920426,759027264,base_link,-0.021693946480325067,0.03235168792111768,0.6887113132122685,-0.7239885828023782,1.0,0.0,0.0,0.0,1.0,0.0,0.0,0.0,1.0,0.0010541093070060015,6.927282083779575e-05,9.323447011411189e-05,1.2184696791468346e-07,0.0,0.0,0.0,1.2184696791468346e-07,0.0,0.0,0.0,1.2184696791468346e-07,0.16671305,0.7256921000000013,9.73800345,8.999999999999999e-08,0.0,0.0,0.0,8.999999999999999e-08,0.0,0.0,0.0,8.999999999999999e-08
1728920426.8793676,229608,1728920426,859200832,base_link,-0.021694551894775357,0.03236478184148172,0.6887053451554314,-0.7239936566495428,1.0,0.0,0.0,0.0,1.0,0.0,0.0,0.0,1.0,0.0001445487141609192,-0.0002962859580293297,0.0006372169591486454,1.2184696791468346e-07,0.0,0.0,0.0,1.2184696791468346e-07,0.0,0.0,0.0,1.2184696791468346e-07,0.1569064,0.7453054000000012,9.7478101,8.999999999999999e-08,0.0,0.0,0.0,8.999999999999999e-08,0.0,0.0,0.0,8.999999999999999e-08
1728920426.979108,229609,1728920426,959376960,base_link,-0.021700313345790232,0.032391322151714225,0.6886888092090433,-0.724008026695967,1.0,0.0,0.0,0.0,1.0,0.0,0.0,0.0,1.0,6.762403063476086e-05,-0.0001534835901111364,0.0002736826427280903,1.2184696791468346e-07,0.0,0.0,0.0,1.2184696791468346e-07,0.0,0.0,0.0,1.2184696791468346e-07,0.1569064,0.7453054000000012,9.7478101,8.999999999999999e-08,0.0,0.0,0.0,8.999999999999999e-08,0.0,0.0,0.0,8.999999999999999e-08
1728920427.0793178,229610,1728920427,59552576,base_link,-0.02168534008109051,0.032385349586410116,0.6886802781087331,-0.7240168573326259,1.0,0.0,0.0,0.0,1.0,0.0,0.0,0.0,1.0,-0.001214594580233097,0.0004624894936569035,0.00020884280093014235,1.2184696791468346e-07,0.0,0.0,0.0,1.2184696791468346e-07,0.0,0.0,0.0,1.2184696791468346e-07,0.1569064,0.7453054000000012,9.7478101,8.999999999999999e-08,0.0,0.0,0.0,8.999999999999999e-08,0.0,0.0,0.0,8.999999999999999e-08
1728920427.1824396,229611,1728920427,161728960,base_link,-0.02166588749394943,0.03240328843693699,0.688643495399632,-0.7240516227875945,1.0,0.0,0.0,0.0,1.0,0.0,0.0,0.0,1.0,0.0007627378217875957,-0.0003150164848193525,0.0010479848133400083,1.2184696791468346e-07,0.0,0.0,0.0,1.2184696791468346e-07,0.0,0.0,0.0,1.2184696791468346e-07,0.1569064,0.7453054000000012,9.7478101,8.999999999999999e-08,0.0,0.0,0.0,8.999999999999999e-08,0.0,0.0,0.0,8.999999999999999e-08
1728920427.2810714,229612,1728920427,259904576,base_link,-0.021671450656421325,0.032406218625593224,0.6886401584596578,-0.7240544989001132,1.0,0.0,0.0,0.0,1.0,0.0,0.0,0.0,1.0,0.0005178737919777632,0.0010483486112207174,0.0004490645369514822,1.2184696791468346e-07,0.0,0.0,0.0,1.2184696791468346e-07,0.0,0.0,0.0,1.2184696791468346e-07,0.1569064,0.7453054000000012,9.7478101,8.999999999999999e-08,0.0,0.0,0.0,8.999999999999999e-08,0.0,0.0,0.0,8.999999999999999e-08
1728920427.3814597,229613,1728920427,360079936,base_link,-0.021669361128792478,0.032398858861378804,0.6886224377038116,-0.7240717443897466,1.0,0.0,0.0,0.0,1.0,0.0,0.0,0.0,1.0,-0.0011965432204306126,0.00018089136574417355,0.00020250875968486068,1.2184696791468346e-07,0.0,0.0,0.0,1.2184696791468346e-07,0.0,0.0,0.0,1.2184696791468346e-07,0.16671305,0.7256921000000013,9.7478101,8.999999999999999e-08,0.0,0.0,0.0,8.999999999999999e-08,0.0,0.0,0.0,8.999999999999999e-08
1728920427.484177,229614,1728920427,462254784,base_link,-0.021681129069871522,0.032439844805486825,0.6886008139853645,-0.7240901215249003,1.0,0.0,0.0,0.0,1.0,0.0,0.0,0.0,1.0,0.001688944874331355,-0.0006536649307236075,-0.00010428531095385543,1.2184696791468346e-07,0.0,0.0,0.0,1.2184696791468346e-07,0.0,0.0,0.0,1.2184696791468346e-07,0.16671305,0.7256921000000013,9.7478101,8.999999999999999e-08,0.0,0.0,0.0,8.999999999999999e-08,0.0,0.0,0.0,8.999999999999999e-08
1728920427.580295,229615,1728920427,560428864,base_link,-0.021675141797477693,0.03242830864755736,0.6886029106126749,-0.7240888236411818,1.0,0.0,0.0,0.0,1.0,0.0,0.0,0.0,1.0,-0.00032501760870218277,-0.0002566020702943206,-0.00015787710435688493,1.2184696791468346e-07,0.0,0.0,0.0,1.2184696791468346e-07,0.0,0.0,0.0,1.2184696791468346e-07,0.16671305,0.7256921000000013,9.7478101,8.999999999999999e-08,0.0,0.0,0.0,8.999999999999999e-08,0.0,0.0,0.0,8.999999999999999e-08
1728920427.6814766,229616,1728920427,660603968,base_link,-0.02167436359367121,0.03241160142996247,0.6886092220206222,-0.7240835928286926,1.0,0.0,0.0,0.0,1.0,0.0,0.0,0.0,1.0,0.00035190116614103317,0.0003906640922650695,-5.722278729081201e-06,1.2184696791468346e-07,0.0,0.0,0.0,1.2184696791468346e-07,0.0,0.0,0.0,1.2184696791468346e-07,0.16671305,0.7256921000000013,9.7478101,8.999999999999999e-08,0.0,0.0,0.0,8.999999999999999e-08,0.0,0.0,0.0,8.999999999999999e-08
1728920427.7813218,229617,1728920427,760778304,base_link,-0.021690987983182128,0.03237897144244788,0.688616353868789,-0.7240777723650251,1.0,0.0,0.0,0.0,1.0,0.0,0.0,0.0,1.0,-0.00045749335549771786,0.001240210491232574,-0.0007390468381345273,1.2184696791468346e-07,0.0,0.0,0.0,1.2184696791468346e-07,0.0,0.0,0.0,1.2184696791468346e-07,0.16671305,0.7256921000000013,9.7478101,8.999999999999999e-08,0.0,0.0,0.0,8.999999999999999e-08,0.0,0.0,0.0,8.999999999999999e-08
1728920427.8813324,229618,1728920427,860952384,base_link,-0.021661909842157687,0.03237477668797863,0.6886207104088743,-0.7240746872335553,1.0,0.0,0.0,0.0,1.0,0.0,0.0,0.0,1.0,-0.0004516660701483488,0.00022016779985278842,-0.00019948324188590052,1.2184696791468346e-07,0.0,0.0,0.0,1.2184696791468346e-07,0.0,0.0,0.0,1.2184696791468346e-07,0.16671305,0.7256921000000013,9.73800345,8.999999999999999e-08,0.0,0.0,0.0,8.999999999999999e-08,0.0,0.0,0.0,8.999999999999999e-08
1728920427.9810655,229619,1728920427,961126208,base_link,-0.021665597965670937,0.03238261450672433,0.6886423844316693,-0.7240536130058076,1.0,0.0,0.0,0.0,1.0,0.0,0.0,0.0,1.0,0.0004917699843645096,0.0005699829198420046,-0.0016321854200214148,1.2184696791468346e-07,0.0,0.0,0.0,1.2184696791468346e-07,0.0,0.0,0.0,1.2184696791468346e-07,0.16671305,0.7256921000000013,9.73800345,8.999999999999999e-08,0.0,0.0,0.0,8.999999999999999e-08,0.0,0.0,0.0,8.999999999999999e-08
1728920428.081258,229620,1728920428,61299264,base_link,-0.021678151834354467,0.032396282273590274,0.688664473804072,-0.7240316161246396,1.0,0.0,0.0,0.0,1.0,0.0,0.0,0.0,1.0,0.000570355448871851,-0.0012546833604574203,-0.0007702461443841456,1.2184696791468346e-07,0.0,0.0,0.0,1.2184696791468346e-07,0.0,0.0,0.0,1.2184696791468346e-07,0.16671305,0.7256921000000013,9.73800345,8.999999999999999e-08,0.0,0.0,0.0,8.999999999999999e-08,0.0,0.0,0.0,8.999999999999999e-08
1728920428.1815689,229621,1728920428,161471808,base_link,-0.02169375965830657,0.03239502535978992,0.6886866515843858,-0.7240101097728628,1.0,0.0,0.0,0.0,1.0,0.0,0.0,0.0,1.0,0.001092749647796154,-0.00028466910589486366,-0.0002531749196350574,1.2184696791468346e-07,0.0,0.0,0.0,1.2184696791468346e-07,0.0,0.0,0.0,1.2184696791468346e-07,0.16671305,0.7256921000000013,9.73800345,8.999999999999999e-08,0.0,0.0,0.0,8.999999999999999e-08,0.0,0.0,0.0,8.999999999999999e-08
1728920428.2824054,229622,1728920428,261643840,base_link,-0.021689104409944523,0.03238651529753917,0.6886871364579921,-0.7240101687504588,1.0,0.0,0.0,0.0,1.0,0.0,0.0,0.0,1.0,0.0012943418696522713,-8.535303641110663e-05,-0.000328264432027936,1.2184696791468346e-07,0.0,0.0,0.0,1.2184696791468346e-07,0.0,0.0,0.0,1.2184696791468346e-07,0.16671305,0.7256921000000013,9.73800345,8.999999999999999e-08,0.0,0.0,0.0,8.999999999999999e-08,0.0,0.0,0.0,8.999999999999999e-08
1728920428.382344,229623,1728920428,361816896,base_link,-0.021641284315225013,0.03237170228308152,0.6887058231668169,-0.7239944867473787,1.0,0.0,0.0,0.0,1.0,0.0,0.0,0.0,1.0,7.385550998151302e-05,-0.0014162341831251979,-0.0006856187246739862,1.2184696791468346e-07,0.0,0.0,0.0,1.2184696791468346e-07,0.0,0.0,0.0,1.2184696791468346e-07,0.1569064,0.7453054000000012,9.75761675,8.999999999999999e-08,0.0,0.0,0.0,8.999999999999999e-08,0.0,0.0,0.0,8.999999999999999e-08
1728920428.48201,229624,1728920428,461992256,base_link,-0.021637901169374703,0.03236538361004203,0.6887073287199538,-0.7239934381913864,1.0,0.0,0.0,0.0,1.0,0.0,0.0,0.0,1.0,-0.000995873473584652,0.0002075510565191507,-0.00015774718485772612,1.2184696791468346e-07,0.0,0.0,0.0,1.2184696791468346e-07,0.0,0.0,0.0,1.2184696791468346e-07,0.1569064,0.7453054000000012,9.75761675,8.999999999999999e-08,0.0,0.0,0.0,8.999999999999999e-08,0.0,0.0,0.0,8.999999999999999e-08
1728920428.5822725,229625,1728920428,562167360,base_link,-0.021668570725776565,0.03234525053843888,0.6887239820149758,-0.7239775786636925,1.0,0.0,0.0,0.0,1.0,0.0,0.0,0.0,1.0,-0.0002791164442896843,0.000508496246766299,-0.00024006189778447157,1.2184696791468346e-07,0.0,0.0,0.0,1.2184696791468346e-07,0.0,0.0,0.0,1.2184696791468346e-07,0.1569064,0.7453054000000012,9.75761675,8.999999999999999e-08,0.0,0.0,0.0,8.999999999999999e-08,0.0,0.0,0.0,8.999999999999999e-08
1728920428.6854336,229626,1728920428,664343232,base_link,-0.021660807382154795,0.032360449045044266,0.6887372784856549,-0.7239644825440883,1.0,0.0,0.0,0.0,1.0,0.0,0.0,0.0,1.0,0.00028260075487196445,-0.0004992694593966007,9.962241165339954e-05,1.2184696791468346e-07,0.0,0.0,0.0,1.2184696791468346e-07,0.0,0.0,0.0,1.2184696791468346e-07,0.1569064,0.7453054000000012,9.75761675,8.999999999999999e-08,0.0,0.0,0.0,8.999999999999999e-08,0.0,0.0,0.0,8.999999999999999e-08
1728920428.782093,229627,1728920428,762518848,base_link,-0.02165562433434525,0.03236062878696973,0.6887426304288854,-0.7239595380054755,1.0,0.0,0.0,0.0,1.0,0.0,0.0,0.0,1.0,-0.0007554353214800358,3.2359268516302136e-05,0.00023148604668676853,1.2184696791468346e-07,0.0,0.0,0.0,1.2184696791468346e-07,0.0,0.0,0.0,1.2184696791468346e-07,0.1569064,0.7453054000000012,9.75761675,8.999999999999999e-08,0.0,0.0,0.0,8.999999999999999e-08,0.0,0.0,0.0,8.999999999999999e-08
1728920428.8852994,229628,1728920428,864693696,base_link,-0.021640325921478756,0.032357443416394745,0.6887376862317403,-0.7239648414900519,1.0,0.0,0.0,0.0,1.0,0.0,0.0,0.0,1.0,2.3873290047049522e-05,-0.0007734661921858786,0.0005850888555869461,1.2184696791468346e-07,0.0,0.0,0.0,1.2184696791468346e-07,0.0,0.0,0.0,1.2184696791468346e-07,0.1569064,0.7453054000000012,9.73800345,8.999999999999999e-08,0.0,0.0,0.0,8.999999999999999e-08,0.0,0.0,0.0,8.999999999999999e-08
1728920428.9838905,229629,1728920428,962868288,base_link,-0.021660109920024755,0.03236087142156475,0.6887526420544561,-0.723949868224379,1.0,0.0,0.0,0.0,1.0,0.0,0.0,0.0,1.0,-0.00010272720828652382,-5.334755405783661e-05,-0.0005881492979824543,1.2184696791468346e-07,0.0,0.0,0.0,1.2184696791468346e-07,0.0,0.0,0.0,1.2184696791468346e-07,0.1569064,0.7453054000000012,9.73800345,8.999999999999999e-08,0.0,0.0,0.0,8.999999999999999e-08,0.0,0.0,0.0,8.999999999999999e-08
1728920429.0848477,229630,1728920429,63042368,base_link,-0.02164360293384879,0.03236898314886742,0.6887559874311867,-0.7239468165270438,1.0,0.0,0.0,0.0,1.0,0.0,0.0,0.0,1.0,-0.0004017299506813288,-0.00021190685220062735,-0.00023734313435852525,1.2184696791468346e-07,0.0,0.0,0.0,1.2184696791468346e-07,0.0,0.0,0.0,1.2184696791468346e-07,0.1569064,0.7453054000000012,9.73800345,8.999999999999999e-08,0.0,0.0,0.0,8.999999999999999e-08,0.0,0.0,0.0,8.999999999999999e-08
1728920429.1880887,229631,1728920429,165217728,base_link,-0.02162876489531532,0.03240076442478053,0.6887517479406327,-0.723949871677947,1.0,0.0,0.0,0.0,1.0,0.0,0.0,0.0,1.0,0.0005997607950121164,-0.0011887376895174384,8.148141205310836e-05,1.2184696791468346e-07,0.0,0.0,0.0,1.2184696791468346e-07,0.0,0.0,0.0,1.2184696791468346e-07,0.1569064,0.7453054000000012,9.73800345,8.999999999999999e-08,0.0,0.0,0.0,8.999999999999999e-08,0.0,0.0,0.0,8.999999999999999e-08
1728920429.283319,229632,1728920429,263392064,base_link,-0.02161164799087114,0.03243744397906704,0.6887383781537969,-0.7239614598563249,1.0,0.0,0.0,0.0,1.0,0.0,0.0,0.0,1.0,0.0014368772972375154,-0.0016107091214507818,0.0008042493136599662,1.2184696791468346e-07,0.0,0.0,0.0,1.2184696791468346e-07,0.0,0.0,0.0,1.2184696791468346e-07,0.1569064,0.7453054000000012,9.73800345,8.999999999999999e-08,0.0,0.0,0.0,8.999999999999999e-08,0.0,0.0,0.0,8.999999999999999e-08
1728920429.383263,229633,1728920429,363565632,base_link,-0.021624861330916678,0.032387745033206884,0.6887326521461736,-0.7239687377309745,1.0,0.0,0.0,0.0,1.0,0.0,0.0,0.0,1.0,-0.0012474451214075089,0.001290328218601644,-4.7619920223951496e-05,1.2184696791468346e-07,0.0,0.0,0.0,1.2184696791468346e-07,0.0,0.0,0.0,1.2184696791468346e-07,0.1569064,0.7354987500000013,9.75761675,8.999999999999999e-08,0.0,0.0,0.0,8.999999999999999e-08,0.0,0.0,0.0,8.999999999999999e-08
1728920429.4845421,229634,1728920429,463738432,base_link,-0.0216286906367731,0.03238461208641965,0.6887342656416617,-0.7239672285210095,1.0,0.0,0.0,0.0,1.0,0.0,0.0,0.0,1.0,-0.0016721426509320736,9.208382107317446e-05,-5.5539421737194075e-05,1.2184696791468346e-07,0.0,0.0,0.0,1.2184696791468346e-07,0.0,0.0,0.0,1.2184696791468346e-07,0.1569064,0.7354987500000013,9.75761675,8.999999999999999e-08,0.0,0.0,0.0,8.999999999999999e-08,0.0,0.0,0.0,8.999999999999999e-08
1728920429.5842087,229635,1728920429,563911488,base_link,-0.021618680552148647,0.03238153813504432,0.6887377834824092,-0.7239643183492754,1.0,0.0,0.0,0.0,1.0,0.0,0.0,0.0,1.0,-0.00032884906977415085,0.0012107269139960408,-0.00040727620944380776,1.2184696791468346e-07,0.0,0.0,0.0,1.2184696791468346e-07,0.0,0.0,0.0,1.2184696791468346e-07,0.1569064,0.7354987500000013,9.75761675,8.999999999999999e-08,0.0,0.0,0.0,8.999999999999999e-08,0.0,0.0,0.0,8.999999999999999e-08
1728920429.6864624,229636,1728920429,666083264,base_link,-0.02162392352111217,0.03234118059476123,0.6887269556186364,-0.7239762665816988,1.0,0.0,0.0,0.0,1.0,0.0,0.0,0.0,1.0,0.00020664744079113007,9.49560198932888e-05,0.0015114338602870703,1.2184696791468346e-07,0.0,0.0,0.0,1.2184696791468346e-07,0.0,0.0,0.0,1.2184696791468346e-07,0.1569064,0.7354987500000013,9.75761675,8.999999999999999e-08,0.0,0.0,0.0,8.999999999999999e-08,0.0,0.0,0.0,8.999999999999999e-08
1728920429.784794,229637,1728920429,764257344,base_link,-0.021639549014795104,0.03234183383645166,0.6887035840980817,-0.7239980034178188,1.0,0.0,0.0,0.0,1.0,0.0,0.0,0.0,1.0,0.001645650016143918,-0.00043343217112123955,0.0010467588435858488,1.2184696791468346e-07,0.0,0.0,0.0,1.2184696791468346e-07,0.0,0.0,0.0,1.2184696791468346e-07,0.1569064,0.7354987500000013,9.75761675,8.999999999999999e-08,0.0,0.0,0.0,8.999999999999999e-08,0.0,0.0,0.0,8.999999999999999e-08
1728920429.8872797,229638,1728920429,866431936,base_link,-0.021616855149820383,0.03235243846017002,0.6886988653894256,-0.7240026962038402,1.0,0.0,0.0,0.0,1.0,0.0,0.0,0.0,1.0,0.0012373237404972315,-0.0010906405514106154,0.00012377765960991396,1.2184696791468346e-07,0.0,0.0,0.0,1.2184696791468346e-07,0.0,0.0,0.0,1.2184696791468346e-07,0.1569064,0.7453054000000012,9.7674234,8.999999999999999e-08,0.0,0.0,0.0,8.999999999999999e-08,0.0,0.0,0.0,8.999999999999999e-08
1728920429.9848194,229639,1728920429,964607040,base_link,-0.02162016312035989,0.03235846771120494,0.6886870022154415,-0.7240136125056907,1.0,0.0,0.0,0.0,1.0,0.0,0.0,0.0,1.0,-0.0002626690547913313,0.0003831328940577804,-0.0006927154026925564,1.2184696791468346e-07,0.0,0.0,0.0,1.2184696791468346e-07,0.0,0.0,0.0,1.2184696791468346e-07,0.1569064,0.7453054000000012,9.7674234,8.999999999999999e-08,0.0,0.0,0.0,8.999999999999999e-08,0.0,0.0,0.0,8.999999999999999e-08
1728920430.0877783,229640,1728920430,64782656,base_link,-0.021623633936733163,0.032362919242623404,0.6886814350288778,-0.7240186053963193,1.0,0.0,0.0,0.0,1.0,0.0,0.0,0.0,1.0,0.0005748956464231014,-7.909571286290883e-05,0.000156074995175004,1.2184696791468346e-07,0.0,0.0,0.0,1.2184696791468346e-07,0.0,0.0,0.0,1.2184696791468346e-07,0.1569064,0.7453054000000012,9.7674234,8.999999999999999e-08,0.0,0.0,0.0,8.999999999999999e-08,0.0,0.0,0.0,8.999999999999999e-08
1728920430.1861503,229641,1728920430,164958784,base_link,-0.02160349849204728,0.03237139212619952,0.6886804440891572,-0.7240197702783242,1.0,0.0,0.0,0.0,1.0,0.0,0.0,0.0,1.0,2.3540109395980835e-05,-0.001586366444826126,0.0002988174092024567,1.2184696791468346e-07,0.0,0.0,0.0,1.2184696791468346e-07,0.0,0.0,0.0,1.2184696791468346e-07,0.1569064,0.7453054000000012,9.7674234,8.999999999999999e-08,0.0,0.0,0.0,8.999999999999999e-08,0.0,0.0,0.0,8.999999999999999e-08
1728920430.2863963,229642,1728920430,265133888,base_link,-0.021605604405389608,0.03235751446238664,0.688672705636174,-0.7240276884400524,1.0,0.0,0.0,0.0,1.0,0.0,0.0,0.0,1.0,0.00020164111629128456,-2.845237031579021e-05,-0.0002829241566359997,1.2184696791468346e-07,0.0,0.0,0.0,1.2184696791468346e-07,0.0,0.0,0.0,1.2184696791468346e-07,0.1569064,0.7453054000000012,9.7674234,8.999999999999999e-08,0.0,0.0,0.0,8.999999999999999e-08,0.0,0.0,0.0,8.999999999999999e-08
1728920430.3892589,229643,1728920430,367308224,base_link,-0.021602937965192272,0.032363908033159444,0.6886462207107071,-0.7240526729658232,1.0,0.0,0.0,0.0,1.0,0.0,0.0,0.0,1.0,-0.0008122953586280346,-0.001620059134438634,0.0005604149773716929,1.2184696791468346e-07,0.0,0.0,0.0,1.2184696791468346e-07,0.0,0.0,0.0,1.2184696791468346e-07,0.1569064,0.7354987500000013,9.75761675,8.999999999999999e-08,0.0,0.0,0.0,8.999999999999999e-08,0.0,0.0,0.0,8.999999999999999e-08
1728920430.4853957,229644,1728920430,465482304,base_link,-0.021613164892485482,0.03232623338359095,0.6886547108387271,-0.7240459757350971,1.0,0.0,0.0,0.0,1.0,0.0,0.0,0.0,1.0,-0.00027675041928887367,0.00093093077884987,-0.00038432190194726,1.2184696791468346e-07,0.0,0.0,0.0,1.2184696791468346e-07,0.0,0.0,0.0,1.2184696791468346e-07,0.1569064,0.7354987500000013,9.75761675,8.999999999999999e-08,0.0,0.0,0.0,8.999999999999999e-08,0.0,0.0,0.0,8.999999999999999e-08
1728920430.5852118,229645,1728920430,565655872,base_link,-0.021621828830119077,0.032316179627722603,0.6886361594986498,-0.7240638099527277,1.0,0.0,0.0,0.0,1.0,0.0,0.0,0.0,1.0,0.00020285369828343391,0.0002441144315525891,0.0012581872288137674,1.2184696791468346e-07,0.0,0.0,0.0,1.2184696791468346e-07,0.0,0.0,0.0,1.2184696791468346e-07,0.1569064,0.7354987500000013,9.75761675,8.999999999999999e-08,0.0,0.0,0.0,8.999999999999999e-08,0.0,0.0,0.0,8.999999999999999e-08
1728920430.6883614,229646,1728920430,667830208,base_link,-0.021616871212875474,0.032326800645852735,0.6886213197287837,-0.7240775972600987,1.0,0.0,0.0,0.0,1.0,0.0,0.0,0.0,1.0,0.0013592136092483997,0.0010836417786777022,0.0009084697812795638,1.2184696791468346e-07,0.0,0.0,0.0,1.2184696791468346e-07,0.0,0.0,0.0,1.2184696791468346e-07,0.1569064,0.7354987500000013,9.75761675,8.999999999999999e-08,0.0,0.0,0.0,8.999999999999999e-08,0.0,0.0,0.0,8.999999999999999e-08
1728920430.786644,229647,1728920430,766004288,base_link,-0.021645448987086792,0.032329251528572044,0.6886136738070641,-0.724083905552173,1.0,0.0,0.0,0.0,1.0,0.0,0.0,0.0,1.0,0.0003265936393290758,0.0006328700110316278,0.0009663667296990751,1.2184696791468346e-07,0.0,0.0,0.0,1.2184696791468346e-07,0.0,0.0,0.0,1.2184696791468346e-07,0.1569064,0.7354987500000013,9.75761675,8.999999999999999e-08,0.0,0.0,0.0,8.999999999999999e-08,0.0,0.0,0.0,8.999999999999999e-08
1728920430.886316,229648,1728920430,866180672,base_link,-0.021642992127071905,0.03234924609421006,0.688581281381835,-0.7241138902820977,1.0,0.0,0.0,0.0,1.0,0.0,0.0,0.0,1.0,0.0010272120125591755,-0.0011889702873304484,0.0011416728375479581,1.2184696791468346e-07,0.0,0.0,0.0,1.2184696791468346e-07,0.0,0.0,0.0,1.2184696791468346e-07,0.1765197,0.7354987500000013,9.7674234,8.999999999999999e-08,0.0,0.0,0.0,8.999999999999999e-08,0.0,0.0,0.0,8.999999999999999e-08
1728920430.9864478,229649,1728920430,966358592,base_link,-0.021647297404683196,0.03234490736027958,0.6885888287696199,-0.7241067782976562,1.0,0.0,0.0,0.0,1.0,0.0,0.0,0.0,1.0,-0.0006016776897013187,0.0006146380910649895,-0.0008191131055355073,1.2184696791468346e-07,0.0,0.0,0.0,1.2184696791468346e-07,0.0,0.0,0.0,1.2184696791468346e-07,0.1765197,0.7354987500000013,9.7674234,8.999999999999999e-08,0.0,0.0,0.0,8.999999999999999e-08,0.0,0.0,0.0,8.999999999999999e-08
1728920431.0875497,229650,1728920431,66536256,base_link,-0.02165140642555747,0.032334182914131315,0.6885814599785389,-0.7241141416854767,1.0,0.0,0.0,0.0,1.0,0.0,0.0,0.0,1.0,0.00030811759643256664,8.302833884954447e-05,-0.0004810106474906206,1.2184696791468346e-07,0.0,0.0,0.0,1.2184696791468346e-07,0.0,0.0,0.0,1.2184696791468346e-07,0.1765197,0.7354987500000013,9.7674234,8.999999999999999e-08,0.0,0.0,0.0,8.999999999999999e-08,0.0,0.0,0.0,8.999999999999999e-08
1728920431.190164,229651,1728920431,168708288,base_link,-0.021643040762141824,0.03235766519795519,0.6885719862084758,-0.7241223516080827,1.0,0.0,0.0,0.0,1.0,0.0,0.0,0.0,1.0,0.0011229219380766153,-0.00014827656559646127,0.00023404788225889209,1.2184696791468346e-07,0.0,0.0,0.0,1.2184696791468346e-07,0.0,0.0,0.0,1.2184696791468346e-07,0.1765197,0.7354987500000013,9.7674234,8.999999999999999e-08,0.0,0.0,0.0,8.999999999999999e-08,0.0,0.0,0.0,8.999999999999999e-08
1728920431.287077,229652,1728920431,266884672,base_link,-0.021648767277712404,0.032364517138658226,0.6885902493157038,-0.7241045072729998,1.0,0.0,0.0,0.0,1.0,0.0,0.0,0.0,1.0,-0.0008470062166452408,0.00016484188381582488,-0.000870557501912117,1.2184696791468346e-07,0.0,0.0,0.0,1.2184696791468346e-07,0.0,0.0,0.0,1.2184696791468346e-07,0.1765197,0.7354987500000013,9.7674234,8.999999999999999e-08,0.0,0.0,0.0,8.999999999999999e-08,0.0,0.0,0.0,8.999999999999999e-08
1728920431.3880167,229653,1728920431,367060544,base_link,-0.021653760748786676,0.03236868840297492,0.6885988696700945,-0.7240959738498576,1.0,0.0,0.0,0.0,1.0,0.0,0.0,0.0,1.0,-0.0009589625988155603,0.000845939794089645,-0.0009197338949888946,1.2184696791468346e-07,0.0,0.0,0.0,1.2184696791468346e-07,0.0,0.0,0.0,1.2184696791468346e-07,0.1569064,0.7354987500000013,9.73800345,8.999999999999999e-08,0.0,0.0,0.0,8.999999999999999e-08,0.0,0.0,0.0,8.999999999999999e-08
1728920431.4873896,229654,1728920431,467236416,base_link,-0.02166916024214007,0.032342757988976845,0.6885888330944002,-0.7241062162678616,1.0,0.0,0.0,0.0,1.0,0.0,0.0,0.0,1.0,-0.0011319108307361603,0.0006071567768231033,-0.0005173594690859319,1.2184696791468346e-07,0.0,0.0,0.0,1.2184696791468346e-07,0.0,0.0,0.0,1.2184696791468346e-07,0.1569064,0.7354987500000013,9.73800345,8.999999999999999e-08,0.0,0.0,0.0,8.999999999999999e-08,0.0,0.0,0.0,8.999999999999999e-08
1728920431.5870423,229655,1728920431,567412544,base_link,-0.02166884397940845,0.032337848478541285,0.6885760092695888,-0.7241186395990246,1.0,0.0,0.0,0.0,1.0,0.0,0.0,0.0,1.0,0.0005170726217329502,0.00025693618226796394,0.0006178878247737885,1.2184696791468346e-07,0.0,0.0,0.0,1.2184696791468346e-07,0.0,0.0,0.0,1.2184696791468346e-07,0.1569064,0.7354987500000013,9.73800345,8.999999999999999e-08,0.0,0.0,0.0,8.999999999999999e-08,0.0,0.0,0.0,8.999999999999999e-08
1728920431.6907792,229656,1728920431,669588160,base_link,-0.021657707447420245,0.03236778336040951,0.6885683970807192,-0.7241248737960494,1.0,0.0,0.0,0.0,1.0,0.0,0.0,0.0,1.0,-0.0010800103191286325,-0.0015228590928018093,0.00018584332428872604,1.2184696791468346e-07,0.0,0.0,0.0,1.2184696791468346e-07,0.0,0.0,0.0,1.2184696791468346e-07,0.1569064,0.7354987500000013,9.73800345,8.999999999999999e-08,0.0,0.0,0.0,8.999999999999999e-08,0.0,0.0,0.0,8.999999999999999e-08
1728920431.789262,229657,1728920431,767763520,base_link,-0.02164609795738095,0.03237801588057662,0.6885714695672682,-0.7241218418393611,1.0,0.0,0.0,0.0,1.0,0.0,0.0,0.0,1.0,-0.00013311952352523804,-0.0009467353811487554,0.0006261831149458886,1.2184696791468346e-07,0.0,0.0,0.0,1.2184696791468346e-07,0.0,0.0,0.0,1.2184696791468346e-07,0.1569064,0.7354987500000013,9.73800345,8.999999999999999e-08,0.0,0.0,0.0,8.999999999999999e-08,0.0,0.0,0.0,8.999999999999999e-08
1728920431.888625,229658,1728920431,867938112,base_link,-0.021680842879921433,0.032388898449047424,0.6885738868532243,-0.7241180170753359,1.0,0.0,0.0,0.0,1.0,0.0,0.0,0.0,1.0,0.00036584283225238323,0.0005807738052681087,-0.0008099856786429883,1.2184696791468346e-07,0.0,0.0,0.0,1.2184696791468346e-07,0.0,0.0,0.0,1.2184696791468346e-07,0.1765197,0.7256921000000013,9.73800345,8.999999999999999e-08,0.0,0.0,0.0,8.999999999999999e-08,0.0,0.0,0.0,8.999999999999999e-08
1728920431.9904964,229659,1728920431,970112448,base_link,-0.021646510328060847,0.03237997006937931,0.688587456154875,-0.7241065400582166,1.0,0.0,0.0,0.0,1.0,0.0,0.0,0.0,1.0,-0.0011602125596255064,-0.0004800043534487486,0.00019207049626857048,1.2184696791468346e-07,0.0,0.0,0.0,1.2184696791468346e-07,0.0,0.0,0.0,1.2184696791468346e-07,0.1765197,0.7256921000000013,9.73800345,8.999999999999999e-08,0.0,0.0,0.0,8.999999999999999e-08,0.0,0.0,0.0,8.999999999999999e-08
1728920432.088111,229660,1728920432,68286784,base_link,-0.02163553389853161,0.03240638961012989,0.6885800061504881,-0.7241127707167964,1.0,0.0,0.0,0.0,1.0,0.0,0.0,0.0,1.0,-0.00021295365877449512,-0.00011267070658504964,-7.897918112576006e-05,1.2184696791468346e-07,0.0,0.0,0.0,1.2184696791468346e-07,0.0,0.0,0.0,1.2184696791468346e-07,0.1765197,0.7256921000000013,9.73800345,8.999999999999999e-08,0.0,0.0,0.0,8.999999999999999e-08,0.0,0.0,0.0,8.999999999999999e-08
1728920432.1883645,229661,1728920432,168461632,base_link,-0.021624201706062145,0.03241374017373179,0.688581569965113,-0.7241112931400155,1.0,0.0,0.0,0.0,1.0,0.0,0.0,0.0,1.0,0.0010633626952767372,-0.001030436484143138,0.00022603059187531485,1.2184696791468346e-07,0.0,0.0,0.0,1.2184696791468346e-07,0.0,0.0,0.0,1.2184696791468346e-07,0.1765197,0.7256921000000013,9.73800345,8.999999999999999e-08,0.0,0.0,0.0,8.999999999999999e-08,0.0,0.0,0.0,8.999999999999999e-08
1728920432.2910862,229662,1728920432,270635968,base_link,-0.02158999178350249,0.03241858366312646,0.6885842976651443,-0.7241095032500713,1.0,0.0,0.0,0.0,1.0,0.0,0.0,0.0,1.0,-0.00025493139401078224,-0.0001972144236788155,-0.0010356674902141094,1.2184696791468346e-07,0.0,0.0,0.0,1.2184696791468346e-07,0.0,0.0,0.0,1.2184696791468346e-07,0.1765197,0.7256921000000013,9.73800345,8.999999999999999e-08,0.0,0.0,0.0,8.999999999999999e-08,0.0,0.0,0.0,8.999999999999999e-08
1728920432.3912916,229663,1728920432,370815168,base_link,-0.02157231868038119,0.03239028033382693,0.6885898599255916,-0.7241060071662865,1.0,0.0,0.0,0.0,1.0,0.0,0.0,0.0,1.0,-0.00117805739864707,-0.0014210545923560858,0.0001709449570626022,1.2184696791468346e-07,0.0,0.0,0.0,1.2184696791468346e-07,0.0,0.0,0.0,1.2184696791468346e-07,0.16671305,0.7354987500000013,9.73800345,8.999999999999999e-08,0.0,0.0,0.0,8.999999999999999e-08,0.0,0.0,0.0,8.999999999999999e-08
1728920432.4912586,229664,1728920432,468993856,base_link,-0.021570457303337707,0.03238067282153877,0.6885865049686061,-0.7241096826962535,1.0,0.0,0.0,0.0,1.0,0.0,0.0,0.0,1.0,-0.0004553464241325855,-0.0001726228510960936,0.0003826752072200179,1.2184696791468346e-07,0.0,0.0,0.0,1.2184696791468346e-07,0.0,0.0,0.0,1.2184696791468346e-07,0.16671305,0.7354987500000013,9.73800345,8.999999999999999e-08,0.0,0.0,0.0,8.999999999999999e-08,0.0,0.0,0.0,8.999999999999999e-08
1728920432.5911748,229665,1728920432,571172288,base_link,-0.021568525761398734,0.03239712011872014,0.6885803803335774,-0.7241148286868313,1.0,0.0,0.0,0.0,1.0,0.0,0.0,0.0,1.0,0.00011347513645887375,-0.000890451716259122,-0.000726463971659541,1.2184696791468346e-07,0.0,0.0,0.0,1.2184696791468346e-07,0.0,0.0,0.0,1.2184696791468346e-07,0.16671305,0.7354987500000013,9.73800345,8.999999999999999e-08,0.0,0.0,0.0,8.999999999999999e-08,0.0,0.0,0.0,8.999999999999999e-08
1728920432.6892328,229666,1728920432,669350208,base_link,-0.021549115281174685,0.03240586016523132,0.6885800677546794,-0.7241153127427365,1.0,0.0,0.0,0.0,1.0,0.0,0.0,0.0,1.0,-0.001217530108988285,-0.00018136634025722748,-0.00038108881562948227,1.2184696791468346e-07,0.0,0.0,0.0,1.2184696791468346e-07,0.0,0.0,0.0,1.2184696791468346e-07,0.16671305,0.7354987500000013,9.73800345,8.999999999999999e-08,0.0,0.0,0.0,8.999999999999999e-08,0.0,0.0,0.0,8.999999999999999e-08
1728920432.7902794,229667,1728920432,769527872,base_link,-0.021550478790187996,0.03241731424318509,0.6885716671652548,-0.7241227477288873,1.0,0.0,0.0,0.0,1.0,0.0,0.0,0.0,1.0,-0.00048453896306455135,-0.0003347130259498954,-8.134800009429451e-05,1.2184696791468346e-07,0.0,0.0,0.0,1.2184696791468346e-07,0.0,0.0,0.0,1.2184696791468346e-07,0.16671305,0.7354987500000013,9.73800345,8.999999999999999e-08,0.0,0.0,0.0,8.999999999999999e-08,0.0,0.0,0.0,8.999999999999999e-08
1728920432.8943424,229668,1728920432,871705024,base_link,-0.021552562063642165,0.03241088900239695,0.6885675573690835,-0.7241268813414823,1.0,0.0,0.0,0.0,1.0,0.0,0.0,0.0,1.0,0.00013095978647470474,-0.00028176780324429274,0.00013499916531145575,1.2184696791468346e-07,0.0,0.0,0.0,1.2184696791468346e-07,0.0,0.0,0.0,1.2184696791468346e-07,0.16671305,0.7354987500000013,9.7478101,8.999999999999999e-08,0.0,0.0,0.0,8.999999999999999e-08,0.0,0.0,0.0,8.999999999999999e-08
1728920432.990424,229669,1728920432,969882688,base_link,-0.0215348009999637,0.032401509162543356,0.6885573699244444,-0.724137516548213,1.0,0.0,0.0,0.0,1.0,0.0,0.0,0.0,1.0,-0.000330811133608222,0.00014201330486685043,0.00043965457007288933,1.2184696791468346e-07,0.0,0.0,0.0,1.2184696791468346e-07,0.0,0.0,0.0,1.2184696791468346e-07,0.16671305,0.7354987500000013,9.7478101,8.999999999999999e-08,0.0,0.0,0.0,8.999999999999999e-08,0.0,0.0,0.0,8.999999999999999e-08
1728920433.0901294,229670,1728920433,70059584,base_link,-0.02151119259723359,0.0324115276083161,0.6885767080380762,-0.7241193814686817,1.0,0.0,0.0,0.0,1.0,0.0,0.0,0.0,1.0,0.00036229868419468403,-1.220987178385262e-05,-0.00034802197478711605,1.2184696791468346e-07,0.0,0.0,0.0,1.2184696791468346e-07,0.0,0.0,0.0,1.2184696791468346e-07,0.16671305,0.7354987500000013,9.7478101,8.999999999999999e-08,0.0,0.0,0.0,8.999999999999999e-08,0.0,0.0,0.0,8.999999999999999e-08
1728920433.1907601,229671,1728920433,170236480,base_link,-0.021524761356627266,0.03241267230993701,0.6885729319221481,-0.7241225177733434,1.0,0.0,0.0,0.0,1.0,0.0,0.0,0.0,1.0,0.0018097746651619673,-0.00038505299016833305,-7.729721255600448e-05,1.2184696791468346e-07,0.0,0.0,0.0,1.2184696791468346e-07,0.0,0.0,0.0,1.2184696791468346e-07,0.16671305,0.7354987500000013,9.7478101,8.999999999999999e-08,0.0,0.0,0.0,8.999999999999999e-08,0.0,0.0,0.0,8.999999999999999e-08
1728920433.2905686,229672,1728920433,270412608,base_link,-0.02152353937349491,0.032401366149275454,0.6885888456242653,-0.7241079273190841,1.0,0.0,0.0,0.0,1.0,0.0,0.0,0.0,1.0,-0.00022265268489718437,-0.0004254126688465477,-0.0007594525814056396,1.2184696791468346e-07,0.0,0.0,0.0,1.2184696791468346e-07,0.0,0.0,0.0,1.2184696791468346e-07,0.16671305,0.7354987500000013,9.7478101,8.999999999999999e-08,0.0,0.0,0.0,8.999999999999999e-08,0.0,0.0,0.0,8.999999999999999e-08
1728920433.3939579,229673,1728920433,372588480,base_link,-0.02151217665351993,0.03237560885595826,0.6885988670442593,-0.7240998871096419,1.0,0.0,0.0,0.0,1.0,0.0,0.0,0.0,1.0,-2.7982518076896667e-05,0.0008849458536133171,0.0006237010238692163,1.2184696791468346e-07,0.0,0.0,0.0,1.2184696791468346e-07,0.0,0.0,0.0,1.2184696791468346e-07,0.16671305,0.7354987500000013,9.75761675,8.999999999999999e-08,0.0,0.0,0.0,8.999999999999999e-08,0.0,0.0,0.0,8.999999999999999e-08
1728920433.500812,229674,1728920433,472763840,base_link,-0.02150010642617464,0.03235510454638972,0.6885818475885214,-0.7241173467091047,1.0,0.0,0.0,0.0,1.0,0.0,0.0,0.0,1.0,-0.00041557801887393,0.002020318992435932,-0.0003761423286050561,1.2184696791468346e-07,0.0,0.0,0.0,1.2184696791468346e-07,0.0,0.0,0.0,1.2184696791468346e-07,0.16671305,0.7354987500000013,9.75761675,8.999999999999999e-08,0.0,0.0,0.0,8.999999999999999e-08,0.0,0.0,0.0,8.999999999999999e-08
1728920433.592699,229675,1728920433,570939968,base_link,-0.021462935528965547,0.032324969921548534,0.6885773009332703,-0.7241241187514079,1.0,0.0,0.0,0.0,1.0,0.0,0.0,0.0,1.0,-0.00047824159264564514,0.00025185977574437857,-9.239395149052146e-05,1.2184696791468346e-07,0.0,0.0,0.0,1.2184696791468346e-07,0.0,0.0,0.0,1.2184696791468346e-07,0.16671305,0.7354987500000013,9.75761675,8.999999999999999e-08,0.0,0.0,0.0,8.999999999999999e-08,0.0,0.0,0.0,8.999999999999999e-08
1728920433.7203593,229676,1728920433,671115584,base_link,-0.02145747666524451,0.03233790378363924,0.6885588950419415,-0.7241412049681065,1.0,0.0,0.0,0.0,1.0,0.0,0.0,0.0,1.0,-0.00024865963496267796,-0.0010204381542280316,0.0005681664915755392,1.2184696791468346e-07,0.0,0.0,0.0,1.2184696791468346e-07,0.0,0.0,0.0,1.2184696791468346e-07,0.16671305,0.7354987500000013,9.75761675,8.999999999999999e-08,0.0,0.0,0.0,8.999999999999999e-08,0.0,0.0,0.0,8.999999999999999e-08
1728920433.793522,229677,1728920433,773291968,base_link,-0.021473001203969732,0.0323108647268864,0.6885483029211729,-0.724152023254971,1.0,0.0,0.0,0.0,1.0,0.0,0.0,0.0,1.0,0.000289019662886858,0.0010912369471043348,-0.0001674355007708074,1.2184696791468346e-07,0.0,0.0,0.0,1.2184696791468346e-07,0.0,0.0,0.0,1.2184696791468346e-07,0.16671305,0.7354987500000013,9.75761675,8.999999999999999e-08,0.0,0.0,0.0,8.999999999999999e-08,0.0,0.0,0.0,8.999999999999999e-08
1728920433.8912592,229678,1728920433,871469120,base_link,-0.021471415869698186,0.03233821004096478,0.6885298298380509,-0.7241684140412931,1.0,0.0,0.0,0.0,1.0,0.0,0.0,0.0,1.0,-0.0002164216712117195,0.0011012110626325011,-0.0005996040999889375,1.2184696791468346e-07,0.0,0.0,0.0,1.2184696791468346e-07,0.0,0.0,0.0,1.2184696791468346e-07,0.1765197,0.7354987500000013,9.73800345,8.999999999999999e-08,0.0,0.0,0.0,8.999999999999999e-08,0.0,0.0,0.0,8.999999999999999e-08
1728920433.9943206,229679,1728920433,973646272,base_link,-0.021486792338389037,0.03236150982136823,0.6885069545716874,-0.7241886659866398,1.0,0.0,0.0,0.0,1.0,0.0,0.0,0.0,1.0,0.0007293394301086664,0.0004775513662025333,0.0004112265305593609,1.2184696791468346e-07,0.0,0.0,0.0,1.2184696791468346e-07,0.0,0.0,0.0,1.2184696791468346e-07,0.1765197,0.7354987500000013,9.73800345,8.999999999999999e-08,0.0,0.0,0.0,8.999999999999999e-08,0.0,0.0,0.0,8.999999999999999e-08
1728920434.0929513,229680,1728920434,71822912,base_link,-0.021484981734594986,0.0323440150910986,0.6885271334923301,-0.724170316080745,1.0,0.0,0.0,0.0,1.0,0.0,0.0,0.0,1.0,-0.0008821752853691578,-0.0002539671259000898,-0.0004657406825572252,1.2184696791468346e-07,0.0,0.0,0.0,1.2184696791468346e-07,0.0,0.0,0.0,1.2184696791468346e-07,0.1765197,0.7354987500000013,9.73800345,8.999999999999999e-08,0.0,0.0,0.0,8.999999999999999e-08,0.0,0.0,0.0,8.999999999999999e-08
1728920434.1938841,229681,1728920434,171999040,base_link,-0.021506613687788723,0.03233357555338667,0.6885238062015604,-0.7241733036734603,1.0,0.0,0.0,0.0,1.0,0.0,0.0,0.0,1.0,7.61763658374548e-05,0.0013007611269131303,-7.030391134321706e-05,1.2184696791468346e-07,0.0,0.0,0.0,1.2184696791468346e-07,0.0,0.0,0.0,1.2184696791468346e-07,0.1765197,0.7354987500000013,9.73800345,8.999999999999999e-08,0.0,0.0,0.0,8.999999999999999e-08,0.0,0.0,0.0,8.999999999999999e-08
1728920434.2961314,229682,1728920434,274174400,base_link,-0.02150867091506682,0.032335722797739046,0.6885202476092541,-0.7241765300938068,1.0,0.0,0.0,0.0,1.0,0.0,0.0,0.0,1.0,0.0010745760519057512,0.00014075473882257938,-0.00010779546573758127,1.2184696791468346e-07,0.0,0.0,0.0,1.2184696791468346e-07,0.0,0.0,0.0,1.2184696791468346e-07,0.1765197,0.7354987500000013,9.73800345,8.999999999999999e-08,0.0,0.0,0.0,8.999999999999999e-08,0.0,0.0,0.0,8.999999999999999e-08
1728920434.3923259,229683,1728920434,372349504,base_link,-0.021513074488587566,0.03232163963989237,0.6885334352118314,-0.72416448948594,1.0,0.0,0.0,0.0,1.0,0.0,0.0,0.0,1.0,0.0005162395536899567,-0.00039736996404826625,0.0013315289979800582,1.2184696791468346e-07,0.0,0.0,0.0,1.2184696791468346e-07,0.0,0.0,0.0,1.2184696791468346e-07,0.16671305,0.7354987500000013,9.75761675,8.999999999999999e-08,0.0,0.0,0.0,8.999999999999999e-08,0.0,0.0,0.0,8.999999999999999e-08
1728920434.492271,229684,1728920434,472525632,base_link,-0.021532441992310962,0.03234101149368531,0.6885210287536936,-0.7241748448278003,1.0,0.0,0.0,0.0,1.0,0.0,0.0,0.0,1.0,-1.910538412630558e-05,0.00045464921277016396,-0.00032720854505896574,1.2184696791468346e-07,0.0,0.0,0.0,1.2184696791468346e-07,0.0,0.0,0.0,1.2184696791468346e-07,0.16671305,0.7354987500000013,9.75761675,8.999999999999999e-08,0.0,0.0,0.0,8.999999999999999e-08,0.0,0.0,0.0,8.999999999999999e-08
1728920434.59294,229685,1728920434,572701504,base_link,-0.021554171530441913,0.03234233534409888,0.6885376417899903,-0.7241583437842893,1.0,0.0,0.0,0.0,1.0,0.0,0.0,0.0,1.0,0.0013356863055378199,0.0006463942700065671,-0.0011654510162770748,1.2184696791468346e-07,0.0,0.0,0.0,1.2184696791468346e-07,0.0,0.0,0.0,1.2184696791468346e-07,0.16671305,0.7354987500000013,9.75761675,8.999999999999999e-08,0.0,0.0,0.0,8.999999999999999e-08,0.0,0.0,0.0,8.999999999999999e-08
1728920434.6953084,229686,1728920434,674876352,base_link,-0.021542114552411576,0.032321931901033,0.6885377314276707,-0.7241595282941685,1.0,0.0,0.0,0.0,1.0,0.0,0.0,0.0,1.0,-0.0008361036889255047,-0.000800658483058214,0.0015375636285170913,1.2184696791468346e-07,0.0,0.0,0.0,1.2184696791468346e-07,0.0,0.0,0.0,1.2184696791468346e-07,0.16671305,0.7354987500000013,9.75761675,8.999999999999999e-08,0.0,0.0,0.0,8.999999999999999e-08,0.0,0.0,0.0,8.999999999999999e-08
1728920434.7954812,229687,1728920434,775050688,base_link,-0.021530925308064663,0.03230563949721745,0.6885463598899113,-0.7241523839596241,1.0,0.0,0.0,0.0,1.0,0.0,0.0,0.0,1.0,-0.0021640080958604813,-0.0010485879611223936,0.0002582933520898224,1.2184696791468346e-07,0.0,0.0,0.0,1.2184696791468346e-07,0.0,0.0,0.0,1.2184696791468346e-07,0.16671305,0.7354987500000013,9.75761675,8.999999999999999e-08,0.0,0.0,0.0,8.999999999999999e-08,0.0,0.0,0.0,8.999999999999999e-08
1728920434.8941996,229688,1728920434,873224256,base_link,-0.021532906777124865,0.03230745298523782,0.6885473985319938,-0.7241512565632667,1.0,0.0,0.0,0.0,1.0,0.0,0.0,0.0,1.0,0.0011108177714049816,0.00030680245254188765,-0.0008359369821846485,1.2184696791468346e-07,0.0,0.0,0.0,1.2184696791468346e-07,0.0,0.0,0.0,1.2184696791468346e-07,0.16671305,0.7256921000000013,9.7478101,8.999999999999999e-08,0.0,0.0,0.0,8.999999999999999e-08,0.0,0.0,0.0,8.999999999999999e-08
1728920434.9995506,229689,1728920434,975397824,base_link,-0.021523618202170663,0.03227865814473975,0.6885655098386702,-0.7241355955540887,1.0,0.0,0.0,0.0,1.0,0.0,0.0,0.0,1.0,-0.0011948829051107168,0.0003749382449313999,0.00064542714972049,1.2184696791468346e-07,0.0,0.0,0.0,1.2184696791468346e-07,0.0,0.0,0.0,1.2184696791468346e-07,0.16671305,0.7256921000000013,9.7478101,8.999999999999999e-08,0.0,0.0,0.0,8.999999999999999e-08,0.0,0.0,0.0,8.999999999999999e-08
1728920435.0936031,229690,1728920435,73574464,base_link,-0.021535915245448744,0.032292920372810924,0.6885587048999622,-0.7241410646792673,1.0,0.0,0.0,0.0,1.0,0.0,0.0,0.0,1.0,0.0004336223937571049,-2.5003682821989032e-05,0.00023100583348423243,1.2184696791468346e-07,0.0,0.0,0.0,1.2184696791468346e-07,0.0,0.0,0.0,1.2184696791468346e-07,0.16671305,0.7256921000000013,9.7478101,8.999999999999999e-08,0.0,0.0,0.0,8.999999999999999e-08,0.0,0.0,0.0,8.999999999999999e-08
1728920435.1962748,229691,1728920435,175750336,base_link,-0.021542562962988683,0.03229004974593083,0.6885621201970639,-0.7241377474611546,1.0,0.0,0.0,0.0,1.0,0.0,0.0,0.0,1.0,0.00045882887206971645,0.0006500509334728122,-0.0002661750186234713,1.2184696791468346e-07,0.0,0.0,0.0,1.2184696791468346e-07,0.0,0.0,0.0,1.2184696791468346e-07,0.16671305,0.7256921000000013,9.7478101,8.999999999999999e-08,0.0,0.0,0.0,8.999999999999999e-08,0.0,0.0,0.0,8.999999999999999e-08
1728920435.303261,229692,1728920435,273925952,base_link,-0.02157017284572428,0.03230199788152739,0.6885720127634443,-0.7241269859735695,1.0,0.0,0.0,0.0,1.0,0.0,0.0,0.0,1.0,0.0019089968409389257,0.00015502609312534327,-0.0004842635244131088,1.2184696791468346e-07,0.0,0.0,0.0,1.2184696791468346e-07,0.0,0.0,0.0,1.2184696791468346e-07,0.16671305,0.7256921000000013,9.7478101,8.999999999999999e-08,0.0,0.0,0.0,8.999999999999999e-08,0.0,0.0,0.0,8.999999999999999e-08
1728920435.3970013,229693,1728920435,376102336,base_link,-0.021558867876211633,0.03232569308779651,0.6885611483332854,-0.7241365960840791,1.0,0.0,0.0,0.0,1.0,0.0,0.0,0.0,1.0,-0.0004051735159009695,6.849702913314112e-05,0.0006394068477675319,1.2184696791468346e-07,0.0,0.0,0.0,1.2184696791468346e-07,0.0,0.0,0.0,1.2184696791468346e-07,0.16671305,0.7158854500000013,9.7478101,8.999999999999999e-08,0.0,0.0,0.0,8.999999999999999e-08,0.0,0.0,0.0,8.999999999999999e-08
1728920435.4943607,229694,1728920435,474278208,base_link,-0.0215505446928602,0.03230897699501049,0.6885631391341926,-0.7241356968515247,1.0,0.0,0.0,0.0,1.0,0.0,0.0,0.0,1.0,1.314328983426094e-06,0.00016234244685620072,0.00019627797883003947,1.2184696791468346e-07,0.0,0.0,0.0,1.2184696791468346e-07,0.0,0.0,0.0,1.2184696791468346e-07,0.16671305,0.7158854500000013,9.7478101,8.999999999999999e-08,0.0,0.0,0.0,8.999999999999999e-08,0.0,0.0,0.0,8.999999999999999e-08
1728920435.5965598,229695,1728920435,576453824,base_link,-0.02152758743260772,0.03231816775632031,0.6885680810792495,-0.7241312703723306,1.0,0.0,0.0,0.0,1.0,0.0,0.0,0.0,1.0,-0.00014955131337046623,-0.0008946059970185161,0.0001732202945277096,1.2184696791468346e-07,0.0,0.0,0.0,1.2184696791468346e-07,0.0,0.0,0.0,1.2184696791468346e-07,0.16671305,0.7158854500000013,9.7478101,8.999999999999999e-08,0.0,0.0,0.0,8.999999999999999e-08,0.0,0.0,0.0,8.999999999999999e-08
1728920435.6942458,229696,1728920435,674628928,base_link,-0.02152697875628561,0.03228671951421015,0.6885850152890681,-0.7241165884358617,1.0,0.0,0.0,0.0,1.0,0.0,0.0,0.0,1.0,0.0004683744627982378,0.0006517283618450164,-0.0007913194131106139,1.2184696791468346e-07,0.0,0.0,0.0,1.2184696791468346e-07,0.0,0.0,0.0,1.2184696791468346e-07,0.16671305,0.7158854500000013,9.7478101,8.999999999999999e-08,0.0,0.0,0.0,8.999999999999999e-08,0.0,0.0,0.0,8.999999999999999e-08
1728920435.7943738,229697,1728920435,774803264,base_link,-0.021515688946408363,0.032302711635361706,0.6885770163118181,-0.7241238171454369,1.0,0.0,0.0,0.0,1.0,0.0,0.0,0.0,1.0,0.000630656024441123,0.0007216047961264849,0.00012471154332160942,1.2184696791468346e-07,0.0,0.0,0.0,1.2184696791468346e-07,0.0,0.0,0.0,1.2184696791468346e-07,0.16671305,0.7158854500000013,9.7478101,8.999999999999999e-08,0.0,0.0,0.0,8.999999999999999e-08,0.0,0.0,0.0,8.999999999999999e-08
1728920435.8950214,229698,1728920435,874976832,base_link,-0.02151424627590063,0.032280989242706275,0.6885756920213912,-0.7241260879832698,1.0,0.0,0.0,0.0,1.0,0.0,0.0,0.0,1.0,-0.0003341701813042164,0.0007544380496256055,0.0005807643756270408,1.2184696791468346e-07,0.0,0.0,0.0,1.2184696791468346e-07,0.0,0.0,0.0,1.2184696791468346e-07,0.16671305,0.7256921000000013,9.7674234,8.999999999999999e-08,0.0,0.0,0.0,8.999999999999999e-08,0.0,0.0,0.0,8.999999999999999e-08
1728920436.0182064,229699,1728920435,975151424,base_link,-0.021517752185888188,0.03226685619694075,0.6885855092120376,-0.7241172783708668,1.0,0.0,0.0,0.0,1.0,0.0,0.0,0.0,1.0,0.0007517803460359573,-0.00034319935366511345,-0.00021836324594914908,1.2184696791468346e-07,0.0,0.0,0.0,1.2184696791468346e-07,0.0,0.0,0.0,1.2184696791468346e-07,0.16671305,0.7256921000000013,9.7674234,8.999999999999999e-08,0.0,0.0,0.0,8.999999999999999e-08,0.0,0.0,0.0,8.999999999999999e-08
1728920436.096327,229700,1728920436,75326016,base_link,-0.021513638535938195,0.032254829240969354,0.688579499678165,-0.7241236510227717,1.0,0.0,0.0,0.0,1.0,0.0,0.0,0.0,1.0,-0.0018482485320419073,-3.660283982753749e-05,0.0004039702471345663,1.2184696791468346e-07,0.0,0.0,0.0,1.2184696791468346e-07,0.0,0.0,0.0,1.2184696791468346e-07,0.16671305,0.7256921000000013,9.7674234,8.999999999999999e-08,0.0,0.0,0.0,8.999999999999999e-08,0.0,0.0,0.0,8.999999999999999e-08
1728920436.1971638,229701,1728920436,177499840,base_link,-0.021490550539418875,0.032269666596105265,0.6885618786033011,-0.7241404312628744,1.0,0.0,0.0,0.0,1.0,0.0,0.0,0.0,1.0,-0.0001784937921911478,-0.0004174102796241641,-6.950460374355265e-06,1.2184696791468346e-07,0.0,0.0,0.0,1.2184696791468346e-07,0.0,0.0,0.0,1.2184696791468346e-07,0.16671305,0.7256921000000013,9.7674234,8.999999999999999e-08,0.0,0.0,0.0,8.999999999999999e-08,0.0,0.0,0.0,8.999999999999999e-08
1728920436.2984555,229702,1728920436,277673408,base_link,-0.02149107885058193,0.032240405883985954,0.6885424897316675,-0.7241601546566826,1.0,0.0,0.0,0.0,1.0,0.0,0.0,0.0,1.0,0.00029141479171812534,0.00038736331043764965,0.001261465367861092,1.2184696791468346e-07,0.0,0.0,0.0,1.2184696791468346e-07,0.0,0.0,0.0,1.2184696791468346e-07,0.16671305,0.7256921000000013,9.7674234,8.999999999999999e-08,0.0,0.0,0.0,8.999999999999999e-08,0.0,0.0,0.0,8.999999999999999e-08
1728920436.395125,229703,1728920436,375846464,base_link,-0.021478656713454437,0.03223171140068525,0.6885332164249063,-0.7241697273191844,1.0,0.0,0.0,0.0,1.0,0.0,0.0,0.0,1.0,-0.0002602760214358568,-0.0013784468173980713,0.0008564953459426763,1.2184696791468346e-07,0.0,0.0,0.0,1.2184696791468346e-07,0.0,0.0,0.0,1.2184696791468346e-07,0.1765197,0.7453054000000012,9.7478101,8.999999999999999e-08,0.0,0.0,0.0,8.999999999999999e-08,0.0,0.0,0.0,8.999999999999999e-08
1728920436.4983544,229704,1728920436,478020288,base_link,-0.02151701333052602,0.03224962295779988,0.6885337525170792,-0.7241672815041863,1.0,0.0,0.0,0.0,1.0,0.0,0.0,0.0,1.0,0.0003753509372472763,0.0014226416824385524,0.0003482536412775515,1.2184696791468346e-07,0.0,0.0,0.0,1.2184696791468346e-07,0.0,0.0,0.0,1.2184696791468346e-07,0.1765197,0.7453054000000012,9.7478101,8.999999999999999e-08,0.0,0.0,0.0,8.999999999999999e-08,0.0,0.0,0.0,8.999999999999999e-08
1728920436.5965276,229705,1728920436,576193600,base_link,-0.02151429922906787,0.03223782039693569,0.6885400928769175,-0.7241618592316104,1.0,0.0,0.0,0.0,1.0,0.0,0.0,0.0,1.0,0.0007500213105231524,-0.0002004345878958702,-1.2617092579603171e-05,1.2184696791468346e-07,0.0,0.0,0.0,1.2184696791468346e-07,0.0,0.0,0.0,1.2184696791468346e-07,0.1765197,0.7453054000000012,9.7478101,8.999999999999999e-08,0.0,0.0,0.0,8.999999999999999e-08,0.0,0.0,0.0,8.999999999999999e-08
1728920436.697495,229706,1728920436,676366144,base_link,-0.02152946940869498,0.032255924813405515,0.688534146399845,-0.724166256119994,1.0,0.0,0.0,0.0,1.0,0.0,0.0,0.0,1.0,0.0016253837384283543,0.000747015350498259,-0.0007356670685112477,1.2184696791468346e-07,0.0,0.0,0.0,1.2184696791468346e-07,0.0,0.0,0.0,1.2184696791468346e-07,0.1765197,0.7453054000000012,9.7478101,8.999999999999999e-08,0.0,0.0,0.0,8.999999999999999e-08,0.0,0.0,0.0,8.999999999999999e-08
1728920436.7964418,229707,1728920436,776543552,base_link,-0.02154791592547254,0.03225515249226356,0.6885322726054409,-0.7241675234624625,1.0,0.0,0.0,0.0,1.0,0.0,0.0,0.0,1.0,-0.00048576504923403263,0.0017620986327528954,-0.0002952408976852896,1.2184696791468346e-07,0.0,0.0,0.0,1.2184696791468346e-07,0.0,0.0,0.0,1.2184696791468346e-07,0.1765197,0.7453054000000012,9.7478101,8.999999999999999e-08,0.0,0.0,0.0,8.999999999999999e-08,0.0,0.0,0.0,8.999999999999999e-08
1728920436.8997245,229708,1728920436,878720192,base_link,-0.021563132843805143,0.03226982034893082,0.6885301158353875,-0.7241684676815996,1.0,0.0,0.0,0.0,1.0,0.0,0.0,0.0,1.0,0.00017411611042916775,0.00032864208333194256,-0.00012410967610776427,1.2184696791468346e-07,0.0,0.0,0.0,1.2184696791468346e-07,0.0,0.0,0.0,1.2184696791468346e-07,0.1765197,0.7453054000000012,9.7478101,8.999999999999999e-08,0.0,0.0,0.0,8.999999999999999e-08,0.0,0.0,0.0,8.999999999999999e-08
1728920436.9993973,229709,1728920436,978896576,base_link,-0.02154539598692108,0.03225563993863371,0.6885535162433287,-0.724147377867837,1.0,0.0,0.0,0.0,1.0,0.0,0.0,0.0,1.0,0.0006241307128220797,0.00036580243613570923,-0.0005722860805690289,1.2184696791468346e-07,0.0,0.0,0.0,1.2184696791468346e-07,0.0,0.0,0.0,1.2184696791468346e-07,0.1765197,0.7453054000000012,9.7478101,8.999999999999999e-08,0.0,0.0,0.0,8.999999999999999e-08,0.0,0.0,0.0,8.999999999999999e-08
1728920437.0975373,229710,1728920437,77072448,base_link,-0.02158478897127711,0.03224168501102025,0.688553714720263,-0.7241466374827976,1.0,0.0,0.0,0.0,1.0,0.0,0.0,0.0,1.0,0.0016312729567289352,0.0008245877106674017,0.0005354734603315591,1.2184696791468346e-07,0.0,0.0,0.0,1.2184696791468346e-07,0.0,0.0,0.0,1.2184696791468346e-07,0.1765197,0.7453054000000012,9.7478101,8.999999999999999e-08,0.0,0.0,0.0,8.999999999999999e-08,0.0,0.0,0.0,8.999999999999999e-08
1728920437.199578,229711,1728920437,179249600,base_link,-0.021565632310982897,0.032239718723930895,0.6885672989523535,-0.7241343790023295,1.0,0.0,0.0,0.0,1.0,0.0,0.0,0.0,1.0,-0.0011397546622902155,0.00038730812957510336,-0.0014499453827738762,1.2184696791468346e-07,0.0,0.0,0.0,1.2184696791468346e-07,0.0,0.0,0.0,1.2184696791468346e-07,0.1765197,0.7453054000000012,9.7478101,8.999999999999999e-08,0.0,0.0,0.0,8.999999999999999e-08,0.0,0.0,0.0,8.999999999999999e-08
1728920437.2973711,229712,1728920437,277425728,base_link,-0.02157109174575664,0.03221994119909598,0.6885616440403698,-0.7241404737662757,1.0,0.0,0.0,0.0,1.0,0.0,0.0,0.0,1.0,-0.0005255441647022963,-8.38696723803877e-05,0.0006183568621054292,1.2184696791468346e-07,0.0,0.0,0.0,1.2184696791468346e-07,0.0,0.0,0.0,1.2184696791468346e-07,0.1765197,0.7453054000000012,9.7478101,8.999999999999999e-08,0.0,0.0,0.0,8.999999999999999e-08,0.0,0.0,0.0,8.999999999999999e-08
1728920437.3976064,229713,1728920437,377601088,base_link,-0.021607246323514403,0.032227104480334466,0.6885651001827208,-0.7241357907557727,1.0,0.0,0.0,0.0,1.0,0.0,0.0,0.0,1.0,0.001113709295168519,0.00023177708499133598,0.0008397948695346713,1.2184696791468346e-07,0.0,0.0,0.0,1.2184696791468346e-07,0.0,0.0,0.0,1.2184696791468346e-07,0.16671305,0.7256921000000013,9.73800345,8.999999999999999e-08,0.0,0.0,0.0,8.999999999999999e-08,0.0,0.0,0.0,8.999999999999999e-08
1728920437.4972007,229714,1728920437,477776448,base_link,-0.021605991314647077,0.03225739167074979,0.6885783044218879,-0.7241219237817546,1.0,0.0,0.0,0.0,1.0,0.0,0.0,0.0,1.0,0.0007556818891316652,-0.00093456928152591,-0.0006875509861856698,1.2184696791468346e-07,0.0,0.0,0.0,1.2184696791468346e-07,0.0,0.0,0.0,1.2184696791468346e-07,0.16671305,0.7256921000000013,9.73800345,8.999999999999999e-08,0.0,0.0,0.0,8.999999999999999e-08,0.0,0.0,0.0,8.999999999999999e-08
1728920437.5974872,229715,1728920437,577951552,base_link,-0.02162650378248219,0.03226657438600923,0.6885661136729782,-0.7241324945152164,1.0,0.0,0.0,0.0,1.0,0.0,0.0,0.0,1.0,0.0004401674959808588,0.0009758909000083804,-0.00014283950440585624,1.2184696791468346e-07,0.0,0.0,0.0,1.2184696791468346e-07,0.0,0.0,0.0,1.2184696791468346e-07,0.16671305,0.7256921000000013,9.73800345,8.999999999999999e-08,0.0,0.0,0.0,8.999999999999999e-08,0.0,0.0,0.0,8.999999999999999e-08
1728920437.700186,229716,1728920437,680126144,base_link,-0.021647693861669384,0.03227495567537969,0.6885857698058083,-0.7241127966053121,1.0,0.0,0.0,0.0,1.0,0.0,0.0,0.0,1.0,0.0001642005518078804,0.0001824297942221164,-0.0005985472816973925,1.2184696791468346e-07,0.0,0.0,0.0,1.2184696791468346e-07,0.0,0.0,0.0,1.2184696791468346e-07,0.16671305,0.7256921000000013,9.73800345,8.999999999999999e-08,0.0,0.0,0.0,8.999999999999999e-08,0.0,0.0,0.0,8.999999999999999e-08
1728920437.7983758,229717,1728920437,778300224,base_link,-0.021678410082993507,0.03228743659963603,0.6886047123267407,-0.7240933076168463,1.0,0.0,0.0,0.0,1.0,0.0,0.0,0.0,1.0,0.0014916297513991594,0.0005415721680037676,-0.0006625736132264138,1.2184696791468346e-07,0.0,0.0,0.0,1.2184696791468346e-07,0.0,0.0,0.0,1.2184696791468346e-07,0.16671305,0.7256921000000013,9.73800345,8.999999999999999e-08,0.0,0.0,0.0,8.999999999999999e-08,0.0,0.0,0.0,8.999999999999999e-08
1728920437.8984914,229718,1728920437,878476352,base_link,-0.02169030917247168,0.03228444441632728,0.6886075258545845,-0.7240904090465218,1.0,0.0,0.0,0.0,1.0,0.0,0.0,0.0,1.0,-0.000858257757499814,0.0006694359472021459,-0.0006227935664355756,1.2184696791468346e-07,0.0,0.0,0.0,1.2184696791468346e-07,0.0,0.0,0.0,1.2184696791468346e-07,0.16671305,0.7354987500000013,9.7478101,8.999999999999999e-08,0.0,0.0,0.0,8.999999999999999e-08,0.0,0.0,0.0,8.999999999999999e-08
1728920437.9990327,229719,1728920437,978652736,base_link,-0.021689877062770067,0.032258374250485194,0.6886204916318392,-0.7240792532785632,1.0,0.0,0.0,0.0,1.0,0.0,0.0,0.0,1.0,-2.2304942831397057e-05,0.0008933863718993962,-0.00020216405391693126,1.2184696791468346e-07,0.0,0.0,0.0,1.2184696791468346e-07,0.0,0.0,0.0,1.2184696791468346e-07,0.16671305,0.7354987500000013,9.7478101,8.999999999999999e-08,0.0,0.0,0.0,8.999999999999999e-08,0.0,0.0,0.0,8.999999999999999e-08
1728920438.1023324,229720,1728920438,80828864,base_link,-0.021667789363565716,0.0322482505413376,0.6886175996009789,-0.7240831159203376,1.0,0.0,0.0,0.0,1.0,0.0,0.0,0.0,1.0,-0.0010884054936468601,-0.00019391661044210198,-0.00030280486680567265,1.2184696791468346e-07,0.0,0.0,0.0,1.2184696791468346e-07,0.0,0.0,0.0,1.2184696791468346e-07,0.16671305,0.7354987500000013,9.7478101,8.999999999999999e-08,0.0,0.0,0.0,8.999999999999999e-08,0.0,0.0,0.0,8.999999999999999e-08
1728920438.198702,229721,1728920438,179004736,base_link,-0.021664594786045734,0.032290379366095065,0.6886303392430667,-0.7240692181049604,1.0,0.0,0.0,0.0,1.0,0.0,0.0,0.0,1.0,0.00013924716040492058,-0.0018402737332507968,-0.0007352931424975393,1.2184696791468346e-07,0.0,0.0,0.0,1.2184696791468346e-07,0.0,0.0,0.0,1.2184696791468346e-07,0.16671305,0.7354987500000013,9.7478101,8.999999999999999e-08,0.0,0.0,0.0,8.999999999999999e-08,0.0,0.0,0.0,8.999999999999999e-08
1728920438.2993271,229722,1728920438,279180096,base_link,-0.021666025706278926,0.032300356147724925,0.6886156133834757,-0.7240827351396555,1.0,0.0,0.0,0.0,1.0,0.0,0.0,0.0,1.0,-0.0003174354787915945,-0.0009069978259503841,-0.00028534652665257443,1.2184696791468346e-07,0.0,0.0,0.0,1.2184696791468346e-07,0.0,0.0,0.0,1.2184696791468346e-07,0.16671305,0.7354987500000013,9.7478101,8.999999999999999e-08,0.0,0.0,0.0,8.999999999999999e-08,0.0,0.0,0.0,8.999999999999999e-08
1728920438.3994565,229723,1728920438,379354944,base_link,-0.021660960209713448,0.032292252990065336,0.6886206594884335,-0.7240784491512874,1.0,0.0,0.0,0.0,1.0,0.0,0.0,0.0,1.0,2.0223436877131462e-05,0.000726843369193375,-0.0007857552263885738,1.2184696791468346e-07,0.0,0.0,0.0,1.2184696791468346e-07,0.0,0.0,0.0,1.2184696791468346e-07,0.16671305,0.7453054000000012,9.7478101,8.999999999999999e-08,0.0,0.0,0.0,8.999999999999999e-08,0.0,0.0,0.0,8.999999999999999e-08
1728920438.5192564,229724,1728920438,481530048,base_link,-0.021653090035407295,0.032290021006830344,0.6886231866527995,-0.7240763806667365,1.0,0.0,0.0,0.0,1.0,0.0,0.0,0.0,1.0,-0.0005082667339593172,-0.0018397141247987747,7.018679752946125e-06,1.2184696791468346e-07,0.0,0.0,0.0,1.2184696791468346e-07,0.0,0.0,0.0,1.2184696791468346e-07,0.16671305,0.7453054000000012,9.7478101,8.999999999999999e-08,0.0,0.0,0.0,8.999999999999999e-08,0.0,0.0,0.0,8.999999999999999e-08
1728920438.5996761,229725,1728920438,579704896,base_link,-0.021650219987256816,0.03228747001828152,0.6886146628059998,-0.7240846866374826,1.0,0.0,0.0,0.0,1.0,0.0,0.0,0.0,1.0,8.310843259096146e-05,-0.000830564764328301,-0.000272460514679551,1.2184696791468346e-07,0.0,0.0,0.0,1.2184696791468346e-07,0.0,0.0,0.0,1.2184696791468346e-07,0.16671305,0.7453054000000012,9.7478101,8.999999999999999e-08,0.0,0.0,0.0,8.999999999999999e-08,0.0,0.0,0.0,8.999999999999999e-08
1728920438.7026958,229726,1728920438,681879232,base_link,-0.02165568892841802,0.032305449717029554,0.688619962124167,-0.7240786813735969,1.0,0.0,0.0,0.0,1.0,0.0,0.0,0.0,1.0,0.00010400242172181606,0.00012574961874634027,1.0215910151600822e-05,1.2184696791468346e-07,0.0,0.0,0.0,1.2184696791468346e-07,0.0,0.0,0.0,1.2184696791468346e-07,0.16671305,0.7453054000000012,9.7478101,8.999999999999999e-08,0.0,0.0,0.0,8.999999999999999e-08,0.0,0.0,0.0,8.999999999999999e-08
1728920438.7993543,229727,1728920438,780052544,base_link,-0.021681284786312482,0.03231583486194171,0.6886103929101183,-0.7240865524806847,1.0,0.0,0.0,0.0,1.0,0.0,0.0,0.0,1.0,0.001156695419922471,0.0012430651113390923,0.0006364112487062811,1.2184696791468346e-07,0.0,0.0,0.0,1.2184696791468346e-07,0.0,0.0,0.0,1.2184696791468346e-07,0.16671305,0.7453054000000012,9.7478101,8.999999999999999e-08,0.0,0.0,0.0,8.999999999999999e-08,0.0,0.0,0.0,8.999999999999999e-08
1728920438.9026716,229728,1728920438,882226112,base_link,-0.02168164603827259,0.03233145565323757,0.688600071915765,-0.7240956595354077,1.0,0.0,0.0,0.0,1.0,0.0,0.0,0.0,1.0,0.000777495326474309,-0.0005417964421212674,-0.0010534594766795635,1.2184696791468346e-07,0.0,0.0,0.0,1.2184696791468346e-07,0.0,0.0,0.0,1.2184696791468346e-07,0.1569064,0.7354987500000013,9.7478101,8.999999999999999e-08,0.0,0.0,0.0,8.999999999999999e-08,0.0,0.0,0.0,8.999999999999999e-08
1728920439.0010877,229729,1728920438,980400192,base_link,-0.02167459109812719,0.03232753756124399,0.6886335348112945,-0.7240642217022306,1.0,0.0,0.0,0.0,1.0,0.0,0.0,0.0,1.0,0.0007187540177255869,-0.0018208030378445985,-0.0010033226571977136,1.2184696791468346e-07,0.0,0.0,0.0,1.2184696791468346e-07,0.0,0.0,0.0,1.2184696791468346e-07,0.1569064,0.7354987500000013,9.7478101,8.999999999999999e-08,0.0,0.0,0.0,8.999999999999999e-08,0.0,0.0,0.0,8.999999999999999e-08
1728920439.101403,229730,1728920439,80574016,base_link,-0.02170017506164656,0.03232820635844725,0.6886302949105835,-0.724066506895121,1.0,0.0,0.0,0.0,1.0,0.0,0.0,0.0,1.0,0.0004608787130564451,0.000834836275316775,0.0009685601107776164,1.2184696791468346e-07,0.0,0.0,0.0,1.2184696791468346e-07,0.0,0.0,0.0,1.2184696791468346e-07,0.1569064,0.7354987500000013,9.7478101,8.999999999999999e-08,0.0,0.0,0.0,8.999999999999999e-08,0.0,0.0,0.0,8.999999999999999e-08
1728920439.2014601,229731,1728920439,180747072,base_link,-0.021715281095647968,0.03232720143989328,0.6886343112709147,-0.7240622790578408,1.0,0.0,0.0,0.0,1.0,0.0,0.0,0.0,1.0,0.0008218681905418634,0.0017178249545395374,0.0005539605626836417,1.2184696791468346e-07,0.0,0.0,0.0,1.2184696791468346e-07,0.0,0.0,0.0,1.2184696791468346e-07,0.1569064,0.7354987500000013,9.7478101,8.999999999999999e-08,0.0,0.0,0.0,8.999999999999999e-08,0.0,0.0,0.0,8.999999999999999e-08
1728920439.3042464,229732,1728920439,282919872,base_link,-0.021754586995226862,0.032340766763152985,0.6886151667787148,-0.7240787007170983,1.0,0.0,0.0,0.0,1.0,0.0,0.0,0.0,1.0,0.0007640752010047436,0.00044861348578706395,0.0006702600512653588,1.2184696791468346e-07,0.0,0.0,0.0,1.2184696791468346e-07,0.0,0.0,0.0,1.2184696791468346e-07,0.1569064,0.7354987500000013,9.7478101,8.999999999999999e-08,0.0,0.0,0.0,8.999999999999999e-08,0.0,0.0,0.0,8.999999999999999e-08
1728920439.401883,229733,1728920439,381092672,base_link,-0.021778182001859773,0.03235655826526883,0.6886055190597676,-0.7240864610295844,1.0,0.0,0.0,0.0,1.0,0.0,0.0,0.0,1.0,0.00016913143917918205,0.0004992222529836,0.0011724547948688269,1.2184696791468346e-07,0.0,0.0,0.0,1.2184696791468346e-07,0.0,0.0,0.0,1.2184696791468346e-07,0.16671305,0.7354987500000013,9.7478101,8.999999999999999e-08,0.0,0.0,0.0,8.999999999999999e-08,0.0,0.0,0.0,8.999999999999999e-08
1728920439.501558,229734,1728920439,481265984,base_link,-0.02181761335505213,0.03237375917039915,0.6885874140353595,-0.7241017226169004,1.0,0.0,0.0,0.0,1.0,0.0,0.0,0.0,1.0,-0.0005724765360355377,1.700571738183499e-05,4.556635394692421e-05,1.2184696791468346e-07,0.0,0.0,0.0,1.2184696791468346e-07,0.0,0.0,0.0,1.2184696791468346e-07,0.16671305,0.7354987500000013,9.7478101,8.999999999999999e-08,0.0,0.0,0.0,8.999999999999999e-08,0.0,0.0,0.0,8.999999999999999e-08
1728920439.6014566,229735,1728920439,581442624,base_link,-0.021805114694023933,0.03239026392501922,0.68856650977223,-0.724121239431725,1.0,0.0,0.0,0.0,1.0,0.0,0.0,0.0,1.0,-0.0008668235968798399,0.00014903501141816383,0.0004871727433055639,1.2184696791468346e-07,0.0,0.0,0.0,1.2184696791468346e-07,0.0,0.0,0.0,1.2184696791468346e-07,0.16671305,0.7354987500000013,9.7478101,8.999999999999999e-08,0.0,0.0,0.0,8.999999999999999e-08,0.0,0.0,0.0,8.999999999999999e-08
1728920439.7016518,229736,1728920439,681620288,base_link,-0.02183906248530354,0.03242716059038464,0.6885629599177429,-0.7241219405839912,1.0,0.0,0.0,0.0,1.0,0.0,0.0,0.0,1.0,0.0002704921644181013,0.0004073154414072631,-0.0011977690737694502,1.2184696791468346e-07,0.0,0.0,0.0,1.2184696791468346e-07,0.0,0.0,0.0,1.2184696791468346e-07,0.16671305,0.7354987500000013,9.7478101,8.999999999999999e-08,0.0,0.0,0.0,8.999999999999999e-08,0.0,0.0,0.0,8.999999999999999e-08
1728920439.8043504,229737,1728920439,783797440,base_link,-0.02184254347763267,0.032408392027981035,0.6885559675569238,-0.7241293247496174,1.0,0.0,0.0,0.0,1.0,0.0,0.0,0.0,1.0,-0.0003620358183979988,-0.0002803124953061343,-0.0006062621250748634,1.2184696791468346e-07,0.0,0.0,0.0,1.2184696791468346e-07,0.0,0.0,0.0,1.2184696791468346e-07,0.16671305,0.7354987500000013,9.7478101,8.999999999999999e-08,0.0,0.0,0.0,8.999999999999999e-08,0.0,0.0,0.0,8.999999999999999e-08
1728920439.9015841,229738,1728920439,881973056,base_link,-0.02185695668296227,0.03241425644843883,0.6885452284046486,-0.7241388388041649,1.0,0.0,0.0,0.0,1.0,0.0,0.0,0.0,1.0,-0.00031052902340888977,0.00011824176181107774,0.0012501056771725416,1.2184696791468346e-07,0.0,0.0,0.0,1.2184696791468346e-07,0.0,0.0,0.0,1.2184696791468346e-07,0.16671305,0.7453054000000012,9.7478101,8.999999999999999e-08,0.0,0.0,0.0,8.999999999999999e-08,0.0,0.0,0.0,8.999999999999999e-08
1728920440.0047212,229739,1728920439,984148928,base_link,-0.021888732991317505,0.03246803168817875,0.6885405440475372,-0.7241399239712251,1.0,0.0,0.0,0.0,1.0,0.0,0.0,0.0,1.0,0.00042204256169497967,-0.0011083497665822506,0.0003320997348055245,1.2184696791468346e-07,0.0,0.0,0.0,1.2184696791468346e-07,0.0,0.0,0.0,1.2184696791468346e-07,0.16671305,0.7453054000000012,9.7478101,8.999999999999999e-08,0.0,0.0,0.0,8.999999999999999e-08,0.0,0.0,0.0,8.999999999999999e-08
1728920440.1075234,229740,1728920440,82324544,base_link,-0.021912559451875976,0.03248663771453348,0.6885459750702008,-0.7241332048200102,1.0,0.0,0.0,0.0,1.0,0.0,0.0,0.0,1.0,0.001413747202605009,-0.0006898934952914715,0.00039493059739470493,1.2184696791468346e-07,0.0,0.0,0.0,1.2184696791468346e-07,0.0,0.0,0.0,1.2184696791468346e-07,0.16671305,0.7453054000000012,9.7478101,8.999999999999999e-08,0.0,0.0,0.0,8.999999999999999e-08,0.0,0.0,0.0,8.999999999999999e-08
1728920440.2185414,229741,1728920440,182499648,base_link,-0.021894776956891075,0.03246015584070487,0.6885463553498378,-0.7241345686813053,1.0,0.0,0.0,0.0,1.0,0.0,0.0,0.0,1.0,-0.0003676610067486763,-0.00047119287773966784,0.00026031653396785265,1.2184696791468346e-07,0.0,0.0,0.0,1.2184696791468346e-07,0.0,0.0,0.0,1.2184696791468346e-07,0.16671305,0.7453054000000012,9.7478101,8.999999999999999e-08,0.0,0.0,0.0,8.999999999999999e-08,0.0,0.0,0.0,8.999999999999999e-08
1728920440.302954,229742,1728920440,282675776,base_link,-0.02188761921551565,0.03245470069904879,0.688538314446067,-0.7241426752148921,1.0,0.0,0.0,0.0,1.0,0.0,0.0,0.0,1.0,-0.0014116347301751375,0.0005998305859975516,-0.001275471644476056,1.2184696791468346e-07,0.0,0.0,0.0,1.2184696791468346e-07,0.0,0.0,0.0,1.2184696791468346e-07,0.16671305,0.7453054000000012,9.7478101,8.999999999999999e-08,0.0,0.0,0.0,8.999999999999999e-08,0.0,0.0,0.0,8.999999999999999e-08
1728920440.40559,229743,1728920440,384850368,base_link,-0.021880075933436622,0.032441260583921515,0.6885322887863273,-0.724149234748981,1.0,0.0,0.0,0.0,1.0,0.0,0.0,0.0,1.0,5.067954771220684e-05,-0.00016519660130143155,0.0007871392881497741,1.2184696791468346e-07,0.0,0.0,0.0,1.2184696791468346e-07,0.0,0.0,0.0,1.2184696791468346e-07,0.1569064,0.7256921000000013,9.7478101,8.999999999999999e-08,0.0,0.0,0.0,8.999999999999999e-08,0.0,0.0,0.0,8.999999999999999e-08
1728920440.5026937,229744,1728920440,483025216,base_link,-0.021888170357217743,0.0324418136222692,0.6885295797615177,-0.7241515411298517,1.0,0.0,0.0,0.0,1.0,0.0,0.0,0.0,1.0,0.0016823685728013515,-0.0004885820671916007,0.0007473465520888568,1.2184696791468346e-07,0.0,0.0,0.0,1.2184696791468346e-07,0.0,0.0,0.0,1.2184696791468346e-07,0.1569064,0.7256921000000013,9.7478101,8.999999999999999e-08,0.0,0.0,0.0,8.999999999999999e-08,0.0,0.0,0.0,8.999999999999999e-08
1728920440.6060295,229745,1728920440,585199040,base_link,-0.02190767824324673,0.03243636556576773,0.6885139196676618,-0.7241660847117508,1.0,0.0,0.0,0.0,1.0,0.0,0.0,0.0,1.0,-4.250090569257736e-05,0.0006915576523169875,-0.0003578285686671735,1.2184696791468346e-07,0.0,0.0,0.0,1.2184696791468346e-07,0.0,0.0,0.0,1.2184696791468346e-07,0.1569064,0.7256921000000013,9.7478101,8.999999999999999e-08,0.0,0.0,0.0,8.999999999999999e-08,0.0,0.0,0.0,8.999999999999999e-08
1728920440.7048237,229746,1728920440,683373120,base_link,-0.021942970695898095,0.032460241468402734,0.6885107154275825,-0.7241669928284843,1.0,0.0,0.0,0.0,1.0,0.0,0.0,0.0,1.0,-2.15885229408741e-05,-0.00018430675845593209,0.00034244207199662924,1.2184696791468346e-07,0.0,0.0,0.0,1.2184696791468346e-07,0.0,0.0,0.0,1.2184696791468346e-07,0.1569064,0.7256921000000013,9.7478101,8.999999999999999e-08,0.0,0.0,0.0,8.999999999999999e-08,0.0,0.0,0.0,8.999999999999999e-08
1728920440.8060765,229747,1728920440,785546432,base_link,-0.021950622415192578,0.032431700087748476,0.6884968296948496,-0.7241812414756027,1.0,0.0,0.0,0.0,1.0,0.0,0.0,0.0,1.0,-6.02169893682003e-06,0.0008472821209579706,0.00015130173414945592,1.2184696791468346e-07,0.0,0.0,0.0,1.2184696791468346e-07,0.0,0.0,0.0,1.2184696791468346e-07,0.1569064,0.7256921000000013,9.7478101,8.999999999999999e-08,0.0,0.0,0.0,8.999999999999999e-08,0.0,0.0,0.0,8.999999999999999e-08
1728920440.9035463,229748,1728920440,883720256,base_link,-0.021955428387336606,0.03242191483936438,0.6884902818023948,-0.7241877591247567,1.0,0.0,0.0,0.0,1.0,0.0,0.0,0.0,1.0,-0.0003656460903584957,-0.00022773991804569965,-0.00038646487519145006,1.2184696791468346e-07,0.0,0.0,0.0,1.2184696791468346e-07,0.0,0.0,0.0,1.2184696791468346e-07,0.1569064,0.7354987500000013,9.73800345,8.999999999999999e-08,0.0,0.0,0.0,8.999999999999999e-08,0.0,0.0,0.0,8.999999999999999e-08
1728920441.0036507,229749,1728920440,983894336,base_link,-0.021955852004747044,0.03237725647760697,0.6885022188766584,-0.7241783954438621,1.0,0.0,0.0,0.0,1.0,0.0,0.0,0.0,1.0,-0.0009157098829746246,0.00026931928005069483,-0.001044652657583356,1.2184696791468346e-07,0.0,0.0,0.0,1.2184696791468346e-07,0.0,0.0,0.0,1.2184696791468346e-07,0.1569064,0.7354987500000013,9.73800345,8.999999999999999e-08,0.0,0.0,0.0,8.999999999999999e-08,0.0,0.0,0.0,8.999999999999999e-08
1728920441.1033123,229750,1728920441,84070464,base_link,-0.021951029015694706,0.032400548597824715,0.6884992334776597,-0.7241803382282532,1.0,0.0,0.0,0.0,1.0,0.0,0.0,0.0,1.0,0.000698197865858674,9.241758380085227e-05,-0.00025315815582871437,1.2184696791468346e-07,0.0,0.0,0.0,1.2184696791468346e-07,0.0,0.0,0.0,1.2184696791468346e-07,0.1569064,0.7354987500000013,9.73800345,8.999999999999999e-08,0.0,0.0,0.0,8.999999999999999e-08,0.0,0.0,0.0,8.999999999999999e-08
1728920441.2065723,229751,1728920441,186246336,base_link,-0.021963530487782358,0.032405650789967266,0.6884858499473075,-0.7241924547713295,1.0,0.0,0.0,0.0,1.0,0.0,0.0,0.0,1.0,0.00014327839016914368,0.0006461576558649541,0.0006447215564548968,1.2184696791468346e-07,0.0,0.0,0.0,1.2184696791468346e-07,0.0,0.0,0.0,1.2184696791468346e-07,0.1569064,0.7354987500000013,9.73800345,8.999999999999999e-08,0.0,0.0,0.0,8.999999999999999e-08,0.0,0.0,0.0,8.999999999999999e-08
1728920441.3054652,229752,1728920441,284423232,base_link,-0.021966304386692163,0.0323941432196406,0.688471688492833,-0.7242063484259746,1.0,0.0,0.0,0.0,1.0,0.0,0.0,0.0,1.0,-0.0007407446391880512,-0.00029577652458101516,-0.00039883819408714766,1.2184696791468346e-07,0.0,0.0,0.0,1.2184696791468346e-07,0.0,0.0,0.0,1.2184696791468346e-07,0.1569064,0.7354987500000013,9.73800345,8.999999999999999e-08,0.0,0.0,0.0,8.999999999999999e-08,0.0,0.0,0.0,8.999999999999999e-08
1728920441.4070735,229753,1728920441,384599360,base_link,-0.02197288373396301,0.032370649181482934,0.6884647403858458,-0.7242138045476854,1.0,0.0,0.0,0.0,1.0,0.0,0.0,0.0,1.0,0.0005407058633863926,0.0018404319416731596,0.00017820112407207467,1.2184696791468346e-07,0.0,0.0,0.0,1.2184696791468346e-07,0.0,0.0,0.0,1.2184696791468346e-07,0.16671305,0.7354987500000013,9.73800345,8.999999999999999e-08,0.0,0.0,0.0,8.999999999999999e-08,0.0,0.0,0.0,8.999999999999999e-08
1728920441.5078528,229754,1728920441,486774976,base_link,-0.021977284908079427,0.032379654585186234,0.688458353703227,-0.7242193397951032,1.0,0.0,0.0,0.0,1.0,0.0,0.0,0.0,1.0,0.00026501528918743134,-0.0012011324288323522,0.0005005085840821267,1.2184696791468346e-07,0.0,0.0,0.0,1.2184696791468346e-07,0.0,0.0,0.0,1.2184696791468346e-07,0.16671305,0.7354987500000013,9.73800345,8.999999999999999e-08,0.0,0.0,0.0,8.999999999999999e-08,0.0,0.0,0.0,8.999999999999999e-08
1728920441.6044312,229755,1728920441,584950336,base_link,-0.021941152361702288,0.032398935306417756,0.6884263460390465,-0.7242499988977411,1.0,0.0,0.0,0.0,1.0,0.0,0.0,0.0,1.0,0.00020465441048145294,-0.0017306740628555417,-5.570240318774965e-06,1.2184696791468346e-07,0.0,0.0,0.0,1.2184696791468346e-07,0.0,0.0,0.0,1.2184696791468346e-07,0.16671305,0.7354987500000013,9.73800345,8.999999999999999e-08,0.0,0.0,0.0,8.999999999999999e-08,0.0,0.0,0.0,8.999999999999999e-08
1728920441.707502,229756,1728920441,687124928,base_link,-0.021940490624474375,0.032420071503442324,0.6883982988520108,-0.7242757320057925,1.0,0.0,0.0,0.0,1.0,0.0,0.0,0.0,1.0,-0.0009551797993481159,0.0015272751916199923,0.000760291004553437,1.2184696791468346e-07,0.0,0.0,0.0,1.2184696791468346e-07,0.0,0.0,0.0,1.2184696791468346e-07,0.16671305,0.7354987500000013,9.73800345,8.999999999999999e-08,0.0,0.0,0.0,8.999999999999999e-08,0.0,0.0,0.0,8.999999999999999e-08
1728920441.8059201,229757,1728920441,785299520,base_link,-0.02192544591084086,0.03242536199535599,0.6884012573928595,-0.7242731387681108,1.0,0.0,0.0,0.0,1.0,0.0,0.0,0.0,1.0,0.0004165635909885168,-0.0009177165338769555,-0.00044192071072757233,1.2184696791468346e-07,0.0,0.0,0.0,1.2184696791468346e-07,0.0,0.0,0.0,1.2184696791468346e-07,0.16671305,0.7354987500000013,9.73800345,8.999999999999999e-08,0.0,0.0,0.0,8.999999999999999e-08,0.0,0.0,0.0,8.999999999999999e-08
1728920441.908215,229758,1728920441,887474880,base_link,-0.021907544697956936,0.03237066235392943,0.6883934397368391,-0.7242835576149426,1.0,0.0,0.0,0.0,1.0,0.0,0.0,0.0,1.0,-0.001281993929296732,0.0013467323733493686,0.0001440169289708136,1.2184696791468346e-07,0.0,0.0,0.0,1.2184696791468346e-07,0.0,0.0,0.0,1.2184696791468346e-07,0.1765197,0.7354987500000013,9.73800345,8.999999999999999e-08,0.0,0.0,0.0,8.999999999999999e-08,0.0,0.0,0.0,8.999999999999999e-08
1728920442.0057037,229759,1728920441,985649728,base_link,-0.021916197756291292,0.03239223718879252,0.6883838710456947,-0.7242914256913142,1.0,0.0,0.0,0.0,1.0,0.0,0.0,0.0,1.0,0.0010431730188429356,-0.0010646223090589046,0.0006896494887769223,1.2184696791468346e-07,0.0,0.0,0.0,1.2184696791468346e-07,0.0,0.0,0.0,1.2184696791468346e-07,0.1765197,0.7354987500000013,9.73800345,8.999999999999999e-08,0.0,0.0,0.0,8.999999999999999e-08,0.0,0.0,0.0,8.999999999999999e-08
1728920442.1083724,229760,1728920442,87824064,base_link,-0.021914924162764155,0.03237455438799469,0.688395243938693,-0.7242814456064067,1.0,0.0,0.0,0.0,1.0,0.0,0.0,0.0,1.0,-0.000336093595251441,-0.0003790784394368529,0.00043720332905650144,1.2184696791468346e-07,0.0,0.0,0.0,1.2184696791468346e-07,0.0,0.0,0.0,1.2184696791468346e-07,0.1765197,0.7354987500000013,9.73800345,8.999999999999999e-08,0.0,0.0,0.0,8.999999999999999e-08,0.0,0.0,0.0,8.999999999999999e-08
1728920442.2055776,229761,1728920442,185997888,base_link,-0.02190041844791494,0.03237306996809064,0.6883903908855414,-0.7242865632807908,1.0,0.0,0.0,0.0,1.0,0.0,0.0,0.0,1.0,-0.0004470150452107191,0.0003466160851530731,0.00036062847357243294,1.2184696791468346e-07,0.0,0.0,0.0,1.2184696791468346e-07,0.0,0.0,0.0,1.2184696791468346e-07,0.1765197,0.7354987500000013,9.73800345,8.999999999999999e-08,0.0,0.0,0.0,8.999999999999999e-08,0.0,0.0,0.0,8.999999999999999e-08
1728920442.3056073,229762,1728920442,286171200,base_link,-0.0218902231570788,0.032349089074893075,0.688389955593067,-0.7242883566679318,1.0,0.0,0.0,0.0,1.0,0.0,0.0,0.0,1.0,-0.0012089430820196867,0.0005945924785919489,0.0008978527039289473,1.2184696791468346e-07,0.0,0.0,0.0,1.2184696791468346e-07,0.0,0.0,0.0,1.2184696791468346e-07,0.1765197,0.7354987500000013,9.73800345,8.999999999999999e-08,0.0,0.0,0.0,8.999999999999999e-08,0.0,0.0,0.0,8.999999999999999e-08
1728920442.406471,229763,1728920442,386345280,base_link,-0.021897011890384573,0.03234931691546205,0.6883807771338286,-0.7242968647163962,1.0,0.0,0.0,0.0,1.0,0.0,0.0,0.0,1.0,0.0008299786131829023,-2.5014160200954585e-06,-0.0008999437559396029,1.2184696791468346e-07,0.0,0.0,0.0,1.2184696791468346e-07,0.0,0.0,0.0,1.2184696791468346e-07,0.16671305,0.7453054000000012,9.73800345,8.999999999999999e-08,0.0,0.0,0.0,8.999999999999999e-08,0.0,0.0,0.0,8.999999999999999e-08
1728920442.5086923,229764,1728920442,488518848,base_link,-0.02188731784385503,0.032316581298910796,0.6883975216053616,-0.7242827045693888,1.0,0.0,0.0,0.0,1.0,0.0,0.0,0.0,1.0,0.00012096879072487354,-0.0006067454814910888,0.0006398358382284642,1.2184696791468346e-07,0.0,0.0,0.0,1.2184696791468346e-07,0.0,0.0,0.0,1.2184696791468346e-07,0.16671305,0.7453054000000012,9.73800345,8.999999999999999e-08,0.0,0.0,0.0,8.999999999999999e-08,0.0,0.0,0.0,8.999999999999999e-08
1728920442.6063812,229765,1728920442,586694720,base_link,-0.02187548511484287,0.03234432857220085,0.6883936418320172,-0.7242855110006385,1.0,0.0,0.0,0.0,1.0,0.0,0.0,0.0,1.0,7.021869532763958e-05,-0.0006592990830540658,-0.0005207625217735766,1.2184696791468346e-07,0.0,0.0,0.0,1.2184696791468346e-07,0.0,0.0,0.0,1.2184696791468346e-07,0.16671305,0.7453054000000012,9.73800345,8.999999999999999e-08,0.0,0.0,0.0,8.999999999999999e-08,0.0,0.0,0.0,8.999999999999999e-08
1728920442.7072656,229766,1728920442,686871872,base_link,-0.021875443176557468,0.03234013879267111,0.688388043913438,-0.7242910198295506,1.0,0.0,0.0,0.0,1.0,0.0,0.0,0.0,1.0,0.0010391520336270332,-0.001451332587748766,0.0006841537542641165,1.2184696791468346e-07,0.0,0.0,0.0,1.2184696791468346e-07,0.0,0.0,0.0,1.2184696791468346e-07,0.16671305,0.7453054000000012,9.73800345,8.999999999999999e-08,0.0,0.0,0.0,8.999999999999999e-08,0.0,0.0,0.0,8.999999999999999e-08
1728920442.8104205,229767,1728920442,789048512,base_link,-0.021822235797740425,0.032360556315391704,0.6883627332394406,-0.7243157680921165,1.0,0.0,0.0,0.0,1.0,0.0,0.0,0.0,1.0,0.000343965832144022,-0.0002797462511807679,0.0008043099660426378,1.2184696791468346e-07,0.0,0.0,0.0,1.2184696791468346e-07,0.0,0.0,0.0,1.2184696791468346e-07,0.16671305,0.7453054000000012,9.73800345,8.999999999999999e-08,0.0,0.0,0.0,8.999999999999999e-08,0.0,0.0,0.0,8.999999999999999e-08
