Time,header.seq,header.stamp.secs,header.stamp.nsecs,header.frame_id,orientation.x,orientation.y,orientation.z,orientation.w,orientation_covariance_0,orientation_covariance_1,orientation_covariance_2,orientation_covariance_3,orientation_covariance_4,orientation_covariance_5,orientation_covariance_6,orientation_covariance_7,orientation_covariance_8,angular_velocity.x,angular_velocity.y,angular_velocity.z,angular_velocity_covariance_0,angular_velocity_covariance_1,angular_velocity_covariance_2,angular_velocity_covariance_3,angular_velocity_covariance_4,angular_velocity_covariance_5,angular_velocity_covariance_6,angular_velocity_covariance_7,angular_velocity_covariance_8,linear_acceleration.x,linear_acceleration.y,linear_acceleration.z,linear_acceleration_covariance_0,linear_acceleration_covariance_1,linear_acceleration_covariance_2,linear_acceleration_covariance_3,linear_acceleration_covariance_4,linear_acceleration_covariance_5,linear_acceleration_covariance_6,linear_acceleration_covariance_7,linear_acceleration_covariance_8
1728916723.678305,192641,1728916723,661686592,base_link,-0.0028745070307981363,0.003241288833112219,-0.706862266154922,-0.7073379446504752,1.0,0.0,0.0,0.0,1.0,0.0,0.0,0.0,1.0,0.0010037014726549387,0.0005363208474591375,0.0006822376744821667,1.2184696791468346e-07,0.0,0.0,0.0,1.2184696791468346e-07,0.0,0.0,0.0,1.2184696791468346e-07,0.06864655,-0.009806649999998803,9.77723005,8.999999999999999e-08,0.0,0.0,0.0,8.999999999999999e-08,0.0,0.0,0.0,8.999999999999999e-08
1728916723.778525,192642,1728916723,761863488,base_link,-0.002866232268572701,0.0032538125572867203,-0.7068437598758552,-0.7073564140806167,1.0,0.0,0.0,0.0,1.0,0.0,0.0,0.0,1.0,-0.0008251159451901913,-9.552808478474632e-05,-0.001207991037517786,1.2184696791468346e-07,0.0,0.0,0.0,1.2184696791468346e-07,0.0,0.0,0.0,1.2184696791468346e-07,0.06864655,-0.009806649999998803,9.77723005,8.999999999999999e-08,0.0,0.0,0.0,8.999999999999999e-08,0.0,0.0,0.0,8.999999999999999e-08
1728916723.8786752,192643,1728916723,862039360,base_link,-0.002858481594777687,0.003256022176170512,-0.7068323319012061,-0.7073678547839615,1.0,0.0,0.0,0.0,1.0,0.0,0.0,0.0,1.0,0.000930295092985034,-0.0005667156074196102,-0.0016309276688843966,1.2184696791468346e-07,0.0,0.0,0.0,1.2184696791468346e-07,0.0,0.0,0.0,1.2184696791468346e-07,0.0784532,1.1985663167792674e-15,9.7870367,8.999999999999999e-08,0.0,0.0,0.0,8.999999999999999e-08,0.0,0.0,0.0,8.999999999999999e-08
1728916723.9794326,192644,1728916723,962215232,base_link,-0.0028522527459934276,0.0032690973220803133,-0.7068180000475449,-0.7073821403355902,1.0,0.0,0.0,0.0,1.0,0.0,0.0,0.0,1.0,-0.0006472596433013678,0.0003564730286598205,-0.00036551326047629123,1.2184696791468346e-07,0.0,0.0,0.0,1.2184696791468346e-07,0.0,0.0,0.0,1.2184696791468346e-07,0.0784532,1.1985663167792674e-15,9.7870367,8.999999999999999e-08,0.0,0.0,0.0,8.999999999999999e-08,0.0,0.0,0.0,8.999999999999999e-08
1728916724.079655,192645,1728916724,62391616,base_link,-0.0028563293471336776,0.0032521166349896297,-0.706805292820391,-0.7073948990211439,1.0,0.0,0.0,0.0,1.0,0.0,0.0,0.0,1.0,-0.0004382929764688015,0.0017057702643796802,-0.00010576273780316135,1.2184696791468346e-07,0.0,0.0,0.0,1.2184696791468346e-07,0.0,0.0,0.0,1.2184696791468346e-07,0.0784532,1.1985663167792674e-15,9.7870367,8.999999999999999e-08,0.0,0.0,0.0,8.999999999999999e-08,0.0,0.0,0.0,8.999999999999999e-08
1728916724.1793432,192646,1728916724,162568000,base_link,-0.0028349957316736608,0.0032735691783141005,-0.7068069947007061,-0.7073931854253276,1.0,0.0,0.0,0.0,1.0,0.0,0.0,0.0,1.0,-8.110329508781433e-05,0.0012562755728140471,-0.0009959974559023978,1.2184696791468346e-07,0.0,0.0,0.0,1.2184696791468346e-07,0.0,0.0,0.0,1.2184696791468346e-07,0.0784532,1.1985663167792674e-15,9.7870367,8.999999999999999e-08,0.0,0.0,0.0,8.999999999999999e-08,0.0,0.0,0.0,8.999999999999999e-08
1728916724.279545,192647,1728916724,262743616,base_link,-0.0028070219692618074,0.0032677879401945926,-0.7068126316037185,-0.7073876914359396,1.0,0.0,0.0,0.0,1.0,0.0,0.0,0.0,1.0,-0.0004586398135870695,-9.909167420119036e-05,0.0009169976692646742,1.2184696791468346e-07,0.0,0.0,0.0,1.2184696791468346e-07,0.0,0.0,0.0,1.2184696791468346e-07,0.0784532,1.1985663167792674e-15,9.7870367,8.999999999999999e-08,0.0,0.0,0.0,8.999999999999999e-08,0.0,0.0,0.0,8.999999999999999e-08
1728916724.379736,192648,1728916724,362918720,base_link,-0.0027928687470389116,0.003267014887954726,-0.7068309053102952,-0.707369491705793,1.0,0.0,0.0,0.0,1.0,0.0,0.0,0.0,1.0,-0.0002837528008967638,-0.0011154512176290154,-0.00024156062863767134,1.2184696791468346e-07,0.0,0.0,0.0,1.2184696791468346e-07,0.0,0.0,0.0,1.2184696791468346e-07,0.0784532,-0.009806649999998803,9.77723005,8.999999999999999e-08,0.0,0.0,0.0,8.999999999999999e-08,0.0,0.0,0.0,8.999999999999999e-08
1728916724.4794292,192649,1728916724,463093312,base_link,-0.002814174305529693,0.0032725245116944192,-0.706853450319809,-0.7073468532320474,1.0,0.0,0.0,0.0,1.0,0.0,0.0,0.0,1.0,0.0003034863620996475,-0.00020341679919511082,-0.0001115784980356693,1.2184696791468346e-07,0.0,0.0,0.0,1.2184696791468346e-07,0.0,0.0,0.0,1.2184696791468346e-07,0.0784532,-0.009806649999998803,9.77723005,8.999999999999999e-08,0.0,0.0,0.0,8.999999999999999e-08,0.0,0.0,0.0,8.999999999999999e-08
1728916724.5805297,192650,1728916724,563267648,base_link,-0.002791336863257215,0.0032601121398136254,-0.7068526883045856,-0.7073477625213299,1.0,0.0,0.0,0.0,1.0,0.0,0.0,0.0,1.0,-4.6320026740431786e-05,0.00034676678478717793,-0.000809191376902163,1.2184696791468346e-07,0.0,0.0,0.0,1.2184696791468346e-07,0.0,0.0,0.0,1.2184696791468346e-07,0.0784532,-0.009806649999998803,9.77723005,8.999999999999999e-08,0.0,0.0,0.0,8.999999999999999e-08,0.0,0.0,0.0,8.999999999999999e-08
1728916724.681197,192651,1728916724,663443264,base_link,-0.002780325664470051,0.0032678272795424517,-0.7068477036987739,-0.7073527513693864,1.0,0.0,0.0,0.0,1.0,0.0,0.0,0.0,1.0,0.00041685067117214203,-0.00015833473298698658,0.00044006446842104197,1.2184696791468346e-07,0.0,0.0,0.0,1.2184696791468346e-07,0.0,0.0,0.0,1.2184696791468346e-07,0.0784532,-0.009806649999998803,9.77723005,8.999999999999999e-08,0.0,0.0,0.0,8.999999999999999e-08,0.0,0.0,0.0,8.999999999999999e-08
1728916724.7825246,192652,1728916724,763618112,base_link,-0.0027766642204192222,0.003285210526644255,-0.7068422562526133,-0.7073581287461942,1.0,0.0,0.0,0.0,1.0,0.0,0.0,0.0,1.0,-0.0006368828471750021,0.00021501968149095782,0.0005591516382992268,1.2184696791468346e-07,0.0,0.0,0.0,1.2184696791468346e-07,0.0,0.0,0.0,1.2184696791468346e-07,0.0784532,-0.009806649999998803,9.77723005,8.999999999999999e-08,0.0,0.0,0.0,8.999999999999999e-08,0.0,0.0,0.0,8.999999999999999e-08
1728916724.8814914,192653,1728916724,863795776,base_link,-0.002772588663987773,0.003271016555953171,-0.7068215347064374,-0.7073789163369428,1.0,0.0,0.0,0.0,1.0,0.0,0.0,0.0,1.0,0.0010157045908272266,0.0005828971043229102,-0.0007623241981491448,1.2184696791468346e-07,0.0,0.0,0.0,1.2184696791468346e-07,0.0,0.0,0.0,1.2184696791468346e-07,0.0784532,1.1985663167792674e-15,9.7870367,8.999999999999999e-08,0.0,0.0,0.0,8.999999999999999e-08,0.0,0.0,0.0,8.999999999999999e-08
1728916724.9804165,192654,1728916724,963974464,base_link,-0.002772962469330965,0.003271423941413426,-0.7068208467182893,-0.707379600433162,1.0,0.0,0.0,0.0,1.0,0.0,0.0,0.0,1.0,-0.001045828452333808,-0.00012293632607907065,-0.0005946817109361291,1.2184696791468346e-07,0.0,0.0,0.0,1.2184696791468346e-07,0.0,0.0,0.0,1.2184696791468346e-07,0.0784532,1.1985663167792674e-15,9.7870367,8.999999999999999e-08,0.0,0.0,0.0,8.999999999999999e-08,0.0,0.0,0.0,8.999999999999999e-08
1728916725.080655,192655,1728916725,64152896,base_link,-0.0027258349999008283,0.0032871641442942428,-0.7068188754744832,-0.7073816803172306,1.0,0.0,0.0,0.0,1.0,0.0,0.0,0.0,1.0,-0.0008718764875084162,0.00030563003383576875,0.0004010278498753905,1.2184696791468346e-07,0.0,0.0,0.0,1.2184696791468346e-07,0.0,0.0,0.0,1.2184696791468346e-07,0.0784532,1.1985663167792674e-15,9.7870367,8.999999999999999e-08,0.0,0.0,0.0,8.999999999999999e-08,0.0,0.0,0.0,8.999999999999999e-08
1728916725.1819236,192656,1728916725,164330304,base_link,-0.0027174528140870785,0.0032661352538054236,-0.7068259896889701,-0.7073747013506454,1.0,0.0,0.0,0.0,1.0,0.0,0.0,0.0,1.0,-0.0009404055308550596,-0.00020132714416831735,-0.00029142783023416996,1.2184696791468346e-07,0.0,0.0,0.0,1.2184696791468346e-07,0.0,0.0,0.0,1.2184696791468346e-07,0.0784532,1.1985663167792674e-15,9.7870367,8.999999999999999e-08,0.0,0.0,0.0,8.999999999999999e-08,0.0,0.0,0.0,8.999999999999999e-08
1728916725.280622,192657,1728916725,264507200,base_link,-0.002713343001549321,0.0032718251707317177,-0.7068202545952437,-0.7073804214308756,1.0,0.0,0.0,0.0,1.0,0.0,0.0,0.0,1.0,-0.0005079014226794243,0.000608055735938251,0.00017657130956649772,1.2184696791468346e-07,0.0,0.0,0.0,1.2184696791468346e-07,0.0,0.0,0.0,1.2184696791468346e-07,0.0784532,1.1985663167792674e-15,9.7870367,8.999999999999999e-08,0.0,0.0,0.0,8.999999999999999e-08,0.0,0.0,0.0,8.999999999999999e-08
1728916725.3873286,192658,1728916725,364683584,base_link,-0.0027055637523609164,0.003262854260366793,-0.7068227594171865,-0.7073779898164286,1.0,0.0,0.0,0.0,1.0,0.0,0.0,0.0,1.0,-0.00031054182909429073,0.00027257425244897615,0.0008605837356299162,1.2184696791468346e-07,0.0,0.0,0.0,1.2184696791468346e-07,0.0,0.0,0.0,1.2184696791468346e-07,0.08825985,1.1961643802726959e-15,9.7674234,8.999999999999999e-08,0.0,0.0,0.0,8.999999999999999e-08,0.0,0.0,0.0,8.999999999999999e-08
1728916725.4822433,192659,1728916725,464860992,base_link,-0.002710240303293563,0.0032722408072876842,-0.706831718418924,-0.7073689764716491,1.0,0.0,0.0,0.0,1.0,0.0,0.0,0.0,1.0,-0.0007785835769027472,-0.0010130906011909246,0.0002818891080096365,1.2184696791468346e-07,0.0,0.0,0.0,1.2184696791468346e-07,0.0,0.0,0.0,1.2184696791468346e-07,0.08825985,1.1961643802726959e-15,9.7674234,8.999999999999999e-08,0.0,0.0,0.0,8.999999999999999e-08,0.0,0.0,0.0,8.999999999999999e-08
1728916725.6051428,192660,1728916725,565038144,base_link,-0.0027011811218589934,0.0032559271185391087,-0.7068332791932752,-0.707367526809103,1.0,0.0,0.0,0.0,1.0,0.0,0.0,0.0,1.0,0.0005332552827894688,-0.00012807582970708614,-0.00045281427446752787,1.2184696791468346e-07,0.0,0.0,0.0,1.2184696791468346e-07,0.0,0.0,0.0,1.2184696791468346e-07,0.08825985,1.1961643802726959e-15,9.7674234,8.999999999999999e-08,0.0,0.0,0.0,8.999999999999999e-08,0.0,0.0,0.0,8.999999999999999e-08
1728916725.6821752,192661,1728916725,665214528,base_link,-0.0026852438804229476,0.003218351865514084,-0.7068274294193756,-0.7073736047499724,1.0,0.0,0.0,0.0,1.0,0.0,0.0,0.0,1.0,0.0003031534142792225,0.0012216843897476792,-0.00018779351375997083,1.2184696791468346e-07,0.0,0.0,0.0,1.2184696791468346e-07,0.0,0.0,0.0,1.2184696791468346e-07,0.08825985,1.1961643802726959e-15,9.7674234,8.999999999999999e-08,0.0,0.0,0.0,8.999999999999999e-08,0.0,0.0,0.0,8.999999999999999e-08
1728916725.7826047,192662,1728916725,765390912,base_link,-0.0026425433784403388,0.0032303222641650122,-0.7068194139296466,-0.7073817202011327,1.0,0.0,0.0,0.0,1.0,0.0,0.0,0.0,1.0,-0.0005230903625488281,-3.714219201356183e-05,-0.0008089899783954024,1.2184696791468346e-07,0.0,0.0,0.0,1.2184696791468346e-07,0.0,0.0,0.0,1.2184696791468346e-07,0.08825985,1.1961643802726959e-15,9.7674234,8.999999999999999e-08,0.0,0.0,0.0,8.999999999999999e-08,0.0,0.0,0.0,8.999999999999999e-08
1728916725.8818004,192663,1728916725,865566784,base_link,-0.0025897476112901356,0.0032388628571225447,-0.706812152228914,-0.7073891322576515,1.0,0.0,0.0,0.0,1.0,0.0,0.0,0.0,1.0,-0.0020809511188417673,0.0012941621243953705,-0.000659583485685289,1.2184696791468346e-07,0.0,0.0,0.0,1.2184696791468346e-07,0.0,0.0,0.0,1.2184696791468346e-07,0.06864655,-0.009806649999998803,9.7674234,8.999999999999999e-08,0.0,0.0,0.0,8.999999999999999e-08,0.0,0.0,0.0,8.999999999999999e-08
1728916725.983806,192664,1728916725,965742400,base_link,-0.0025866373204259615,0.003253180197268666,-0.7068056686349915,-0.7073955561858013,1.0,0.0,0.0,0.0,1.0,0.0,0.0,0.0,1.0,-0.00024484540335834026,6.374088115990152e-05,-0.0007327554048970342,1.2184696791468346e-07,0.0,0.0,0.0,1.2184696791468346e-07,0.0,0.0,0.0,1.2184696791468346e-07,0.06864655,-0.009806649999998803,9.7674234,8.999999999999999e-08,0.0,0.0,0.0,8.999999999999999e-08,0.0,0.0,0.0,8.999999999999999e-08
1728916726.082584,192665,1728916726,65918784,base_link,-0.0025813473992258485,0.003265180340013871,-0.7068011779846793,-0.7074000070981208,1.0,0.0,0.0,0.0,1.0,0.0,0.0,0.0,1.0,-0.00034960731863975525,-0.0013742699520662427,5.330180283635872e-05,1.2184696791468346e-07,0.0,0.0,0.0,1.2184696791468346e-07,0.0,0.0,0.0,1.2184696791468346e-07,0.06864655,-0.009806649999998803,9.7674234,8.999999999999999e-08,0.0,0.0,0.0,8.999999999999999e-08,0.0,0.0,0.0,8.999999999999999e-08
1728916726.1841464,192666,1728916726,166098496,base_link,-0.002583020646928457,0.003264761322767352,-0.7068205309680992,-0.7073806657944626,1.0,0.0,0.0,0.0,1.0,0.0,0.0,0.0,1.0,0.00016451883129775524,0.0008565688622184097,-0.000964643550105393,1.2184696791468346e-07,0.0,0.0,0.0,1.2184696791468346e-07,0.0,0.0,0.0,1.2184696791468346e-07,0.06864655,-0.009806649999998803,9.7674234,8.999999999999999e-08,0.0,0.0,0.0,8.999999999999999e-08,0.0,0.0,0.0,8.999999999999999e-08
1728916726.2927191,192667,1728916726,266277952,base_link,-0.0025765317093776894,0.003292434708920672,-0.7068128412452587,-0.7073882447488387,1.0,0.0,0.0,0.0,1.0,0.0,0.0,0.0,1.0,-0.0016988713759928942,-0.0012059888103976846,0.00033662654459476487,1.2184696791468346e-07,0.0,0.0,0.0,1.2184696791468346e-07,0.0,0.0,0.0,1.2184696791468346e-07,0.06864655,-0.009806649999998803,9.7674234,8.999999999999999e-08,0.0,0.0,0.0,8.999999999999999e-08,0.0,0.0,0.0,8.999999999999999e-08
1728916726.404833,192668,1728916726,366458176,base_link,-0.002580392250058583,0.003301763261826083,-0.7068155151766465,-0.7073855154304267,1.0,0.0,0.0,0.0,1.0,0.0,0.0,0.0,1.0,-0.0006750314496457577,0.0009829708142206073,-0.0005604082252830268,1.2184696791468346e-07,0.0,0.0,0.0,1.2184696791468346e-07,0.0,0.0,0.0,1.2184696791468346e-07,0.08825985,1.1973653485259817e-15,9.77723005,8.999999999999999e-08,0.0,0.0,0.0,8.999999999999999e-08,0.0,0.0,0.0,8.999999999999999e-08
1728916726.48389,192669,1728916726,466637632,base_link,-0.002549590896781272,0.0033090406723558265,-0.7068141804217328,-0.7073869267881912,1.0,0.0,0.0,0.0,1.0,0.0,0.0,0.0,1.0,0.0003040875308215618,0.0011842109961435199,-0.0005109653575345875,1.2184696791468346e-07,0.0,0.0,0.0,1.2184696791468346e-07,0.0,0.0,0.0,1.2184696791468346e-07,0.08825985,1.1973653485259817e-15,9.77723005,8.999999999999999e-08,0.0,0.0,0.0,8.999999999999999e-08,0.0,0.0,0.0,8.999999999999999e-08
1728916726.583598,192670,1728916726,566816832,base_link,-0.0025875522385289127,0.0033090310541496145,-0.7068179724784228,-0.7073829999854302,1.0,0.0,0.0,0.0,1.0,0.0,0.0,0.0,1.0,0.0009440267458558083,-0.0009083972545340657,0.00021274050232023012,1.2184696791468346e-07,0.0,0.0,0.0,1.2184696791468346e-07,0.0,0.0,0.0,1.2184696791468346e-07,0.08825985,1.1973653485259817e-15,9.77723005,8.999999999999999e-08,0.0,0.0,0.0,8.999999999999999e-08,0.0,0.0,0.0,8.999999999999999e-08
1728916726.6839025,192671,1728916726,666995520,base_link,-0.002622349989403972,0.0033043740276977734,-0.7068290730303823,-0.7073718017505565,1.0,0.0,0.0,0.0,1.0,0.0,0.0,0.0,1.0,0.0017490610480308533,-0.0010962020605802534,0.0018629119731485846,1.2184696791468346e-07,0.0,0.0,0.0,1.2184696791468346e-07,0.0,0.0,0.0,1.2184696791468346e-07,0.08825985,1.1973653485259817e-15,9.77723005,8.999999999999999e-08,0.0,0.0,0.0,8.999999999999999e-08,0.0,0.0,0.0,8.999999999999999e-08
1728916726.7836058,192672,1728916726,767173184,base_link,-0.0026409674242968105,0.003287346821454808,-0.7068479638038446,-0.7073529350390073,1.0,0.0,0.0,0.0,1.0,0.0,0.0,0.0,1.0,0.0007705942261964083,-0.0003662012750282883,0.0005216877907514572,1.2184696791468346e-07,0.0,0.0,0.0,1.2184696791468346e-07,0.0,0.0,0.0,1.2184696791468346e-07,0.08825985,1.1973653485259817e-15,9.77723005,8.999999999999999e-08,0.0,0.0,0.0,8.999999999999999e-08,0.0,0.0,0.0,8.999999999999999e-08
1728916726.8845499,192673,1728916726,867350848,base_link,-0.0026363232026447945,0.0033026234339545847,-0.7068578742634279,-0.7073429776778818,1.0,0.0,0.0,0.0,1.0,0.0,0.0,0.0,1.0,-0.0007038835901767015,-0.00011876632925122975,0.00015122559852898124,1.2184696791468346e-07,0.0,0.0,0.0,1.2184696791468346e-07,0.0,0.0,0.0,1.2184696791468346e-07,0.08825985,1.1961643802726959e-15,9.7674234,8.999999999999999e-08,0.0,0.0,0.0,8.999999999999999e-08,0.0,0.0,0.0,8.999999999999999e-08
1728916726.9844391,192674,1728916726,967529280,base_link,-0.0026628928635990625,0.003276880451660839,-0.7068527266259699,-0.7073481419481741,1.0,0.0,0.0,0.0,1.0,0.0,0.0,0.0,1.0,0.00032107136212289333,-0.0007332959212362767,-0.0006797225214540957,1.2184696791468346e-07,0.0,0.0,0.0,1.2184696791468346e-07,0.0,0.0,0.0,1.2184696791468346e-07,0.08825985,1.1961643802726959e-15,9.7674234,8.999999999999999e-08,0.0,0.0,0.0,8.999999999999999e-08,0.0,0.0,0.0,8.999999999999999e-08
1728916727.0854821,192675,1728916727,67708224,base_link,-0.0026903917399767933,0.003310596554025271,-0.7068549054838342,-0.707345703553914,1.0,0.0,0.0,0.0,1.0,0.0,0.0,0.0,1.0,-0.00020429445430636406,-0.0008905595168471336,0.00020445673726499091,1.2184696791468346e-07,0.0,0.0,0.0,1.2184696791468346e-07,0.0,0.0,0.0,1.2184696791468346e-07,0.08825985,1.1961643802726959e-15,9.7674234,8.999999999999999e-08,0.0,0.0,0.0,8.999999999999999e-08,0.0,0.0,0.0,8.999999999999999e-08
1728916727.1849627,192676,1728916727,167885888,base_link,-0.0026962351794768322,0.0033011005779957827,-0.7068661453621972,-0.7073344934269926,1.0,0.0,0.0,0.0,1.0,0.0,0.0,0.0,1.0,-0.00021564727649092674,0.0006799228722229601,0.0005977002438157796,1.2184696791468346e-07,0.0,0.0,0.0,1.2184696791468346e-07,0.0,0.0,0.0,1.2184696791468346e-07,0.08825985,1.1961643802726959e-15,9.7674234,8.999999999999999e-08,0.0,0.0,0.0,8.999999999999999e-08,0.0,0.0,0.0,8.999999999999999e-08
1728916727.2847257,192677,1728916727,268062784,base_link,-0.0027314306679695056,0.003319557493793962,-0.7068720302414946,-0.7073283909803275,1.0,0.0,0.0,0.0,1.0,0.0,0.0,0.0,1.0,0.001395686762407422,-0.0020308278035372496,0.001288257306441665,1.2184696791468346e-07,0.0,0.0,0.0,1.2184696791468346e-07,0.0,0.0,0.0,1.2184696791468346e-07,0.08825985,1.1961643802726959e-15,9.7674234,8.999999999999999e-08,0.0,0.0,0.0,8.999999999999999e-08,0.0,0.0,0.0,8.999999999999999e-08
1728916727.3847668,192678,1728916727,368239168,base_link,-0.0027698555926312647,0.0033143693589196893,-0.7068953780477532,-0.7073049323668489,1.0,0.0,0.0,0.0,1.0,0.0,0.0,0.0,1.0,0.0013957081828266382,-0.0014756659511476753,0.001911635743454099,1.2184696791468346e-07,0.0,0.0,0.0,1.2184696791468346e-07,0.0,0.0,0.0,1.2184696791468346e-07,0.08825985,1.1985663167792674e-15,9.7870367,8.999999999999999e-08,0.0,0.0,0.0,8.999999999999999e-08,0.0,0.0,0.0,8.999999999999999e-08
1728916727.485814,192679,1728916727,468416576,base_link,-0.0027806442148431702,0.0033105815380175888,-0.7069081000025811,-0.7072921929573177,1.0,0.0,0.0,0.0,1.0,0.0,0.0,0.0,1.0,0.00010945694521069527,-0.00036664982326328744,0.0007387975929304957,1.2184696791468346e-07,0.0,0.0,0.0,1.2184696791468346e-07,0.0,0.0,0.0,1.2184696791468346e-07,0.08825985,1.1985663167792674e-15,9.7870367,8.999999999999999e-08,0.0,0.0,0.0,8.999999999999999e-08,0.0,0.0,0.0,8.999999999999999e-08
1728916727.5865786,192680,1728916727,568591936,base_link,-0.0027543567461936107,0.003321438121955038,-0.7069181820563956,-0.7072821681944184,1.0,0.0,0.0,0.0,1.0,0.0,0.0,0.0,1.0,-0.0004696156829595566,0.00010665750596672303,0.000588585389778018,1.2184696791468346e-07,0.0,0.0,0.0,1.2184696791468346e-07,0.0,0.0,0.0,1.2184696791468346e-07,0.08825985,1.1985663167792674e-15,9.7870367,8.999999999999999e-08,0.0,0.0,0.0,8.999999999999999e-08,0.0,0.0,0.0,8.999999999999999e-08
1728916727.6867151,192681,1728916727,668768064,base_link,-0.002765133481472963,0.0033430180710300886,-0.7069401511610057,-0.7072600659894921,1.0,0.0,0.0,0.0,1.0,0.0,0.0,0.0,1.0,-0.0012163401115685701,-0.0014147041365504263,0.0014409113209694626,1.2184696791468346e-07,0.0,0.0,0.0,1.2184696791468346e-07,0.0,0.0,0.0,1.2184696791468346e-07,0.08825985,1.1985663167792674e-15,9.7870367,8.999999999999999e-08,0.0,0.0,0.0,8.999999999999999e-08,0.0,0.0,0.0,8.999999999999999e-08
1728916727.7856724,192682,1728916727,768945472,base_link,-0.002767780737294538,0.0033426278601257587,-0.7069306597101096,-0.7072695445094523,1.0,0.0,0.0,0.0,1.0,0.0,0.0,0.0,1.0,-0.0006608054973185062,-0.00018408847972750675,-0.0008020739769563079,1.2184696791468346e-07,0.0,0.0,0.0,1.2184696791468346e-07,0.0,0.0,0.0,1.2184696791468346e-07,0.08825985,1.1985663167792674e-15,9.7870367,8.999999999999999e-08,0.0,0.0,0.0,8.999999999999999e-08,0.0,0.0,0.0,8.999999999999999e-08
1728916727.8857534,192683,1728916727,869123648,base_link,-0.0027475230091811953,0.003345311513500291,-0.7069188227198481,-0.7072814419257551,1.0,0.0,0.0,0.0,1.0,0.0,0.0,0.0,1.0,-0.00020070350728929043,0.0008421160164289176,0.000143252545967698,1.2184696791468346e-07,0.0,0.0,0.0,1.2184696791468346e-07,0.0,0.0,0.0,1.2184696791468346e-07,0.0784532,1.1973653485259817e-15,9.77723005,8.999999999999999e-08,0.0,0.0,0.0,8.999999999999999e-08,0.0,0.0,0.0,8.999999999999999e-08
1728916727.9855678,192684,1728916727,969301056,base_link,-0.0027273204836799764,0.0033295583376913274,-0.7069161708125749,-0.7072842449877855,1.0,0.0,0.0,0.0,1.0,0.0,0.0,0.0,1.0,-0.0006234897300601006,0.0012345026480033994,-0.0007026465609669686,1.2184696791468346e-07,0.0,0.0,0.0,1.2184696791468346e-07,0.0,0.0,0.0,1.2184696791468346e-07,0.0784532,1.1973653485259817e-15,9.77723005,8.999999999999999e-08,0.0,0.0,0.0,8.999999999999999e-08,0.0,0.0,0.0,8.999999999999999e-08
1728916728.0857186,192685,1728916728,69478208,base_link,-0.002710097251429215,0.0033266426468920402,-0.7069180128116483,-0.7072824838662538,1.0,0.0,0.0,0.0,1.0,0.0,0.0,0.0,1.0,-0.0010929517447948456,0.0013229473261162636,-0.001113111502490938,1.2184696791468346e-07,0.0,0.0,0.0,1.2184696791468346e-07,0.0,0.0,0.0,1.2184696791468346e-07,0.0784532,1.1973653485259817e-15,9.77723005,8.999999999999999e-08,0.0,0.0,0.0,8.999999999999999e-08,0.0,0.0,0.0,8.999999999999999e-08
1728916728.187308,192686,1728916728,169655104,base_link,-0.002742049639165,0.003320045866972137,-0.7069146242921964,-0.7072857784665546,1.0,0.0,0.0,0.0,1.0,0.0,0.0,0.0,1.0,0.0006374453660100698,-0.0008514740038663149,-0.0002379945944994687,1.2184696791468346e-07,0.0,0.0,0.0,1.2184696791468346e-07,0.0,0.0,0.0,1.2184696791468346e-07,0.0784532,1.1973653485259817e-15,9.77723005,8.999999999999999e-08,0.0,0.0,0.0,8.999999999999999e-08,0.0,0.0,0.0,8.999999999999999e-08
1728916728.2865741,192687,1728916728,269831232,base_link,-0.0027557715060083122,0.0033210137353705737,-0.7069249404069308,-0.7072754097392566,1.0,0.0,0.0,0.0,1.0,0.0,0.0,0.0,1.0,-0.00041108601726591587,0.0011640051379799843,0.00021001277491450296,1.2184696791468346e-07,0.0,0.0,0.0,1.2184696791468346e-07,0.0,0.0,0.0,1.2184696791468346e-07,0.0784532,1.1973653485259817e-15,9.77723005,8.999999999999999e-08,0.0,0.0,0.0,8.999999999999999e-08,0.0,0.0,0.0,8.999999999999999e-08
1728916728.386858,192688,1728916728,370006848,base_link,-0.0027396811632308766,0.003304263550977191,-0.7069200082202914,-0.7072804804088209,1.0,0.0,0.0,0.0,1.0,0.0,0.0,0.0,1.0,0.00021277647465467453,-7.322989404201498e-05,0.0007958477362990379,1.2184696791468346e-07,0.0,0.0,0.0,1.2184696791468346e-07,0.0,0.0,0.0,1.2184696791468346e-07,0.06864655,1.1985663167792674e-15,9.7870367,8.999999999999999e-08,0.0,0.0,0.0,8.999999999999999e-08,0.0,0.0,0.0,8.999999999999999e-08
1728916728.4867835,192689,1728916728,470183232,base_link,-0.002753588702856189,0.0033307180244367823,-0.706920005812848,-0.7072803047224346,1.0,0.0,0.0,0.0,1.0,0.0,0.0,0.0,1.0,0.0002823481336236,-0.00023015798069536691,-0.0003445090260356664,1.2184696791468346e-07,0.0,0.0,0.0,1.2184696791468346e-07,0.0,0.0,0.0,1.2184696791468346e-07,0.06864655,1.1985663167792674e-15,9.7870367,8.999999999999999e-08,0.0,0.0,0.0,8.999999999999999e-08,0.0,0.0,0.0,8.999999999999999e-08
1728916728.5867374,192690,1728916728,570359616,base_link,-0.0027911267690430555,0.0033502530946811814,-0.706924442213262,-0.7072756311488677,1.0,0.0,0.0,0.0,1.0,0.0,0.0,0.0,1.0,-0.000966282095760107,-0.0009116553701460363,-0.00045730662532150735,1.2184696791468346e-07,0.0,0.0,0.0,1.2184696791468346e-07,0.0,0.0,0.0,1.2184696791468346e-07,0.06864655,1.1985663167792674e-15,9.7870367,8.999999999999999e-08,0.0,0.0,0.0,8.999999999999999e-08,0.0,0.0,0.0,8.999999999999999e-08
1728916728.6871152,192691,1728916728,670535488,base_link,-0.0028157149262190346,0.0033327874302304886,-0.7069396599766822,-0.7072604056706783,1.0,0.0,0.0,0.0,1.0,0.0,0.0,0.0,1.0,0.00027898955158889294,0.00018412969075143354,0.001432805205695331,1.2184696791468346e-07,0.0,0.0,0.0,1.2184696791468346e-07,0.0,0.0,0.0,1.2184696791468346e-07,0.06864655,1.1985663167792674e-15,9.7870367,8.999999999999999e-08,0.0,0.0,0.0,8.999999999999999e-08,0.0,0.0,0.0,8.999999999999999e-08
1728916728.789489,192692,1728916728,770710592,base_link,-0.002835617802867787,0.003312069056435015,-0.7069580575745082,-0.7072420337485038,1.0,0.0,0.0,0.0,1.0,0.0,0.0,0.0,1.0,0.0005513813812285662,0.000494167732540518,0.0002898593666031956,1.2184696791468346e-07,0.0,0.0,0.0,1.2184696791468346e-07,0.0,0.0,0.0,1.2184696791468346e-07,0.06864655,1.1985663167792674e-15,9.7870367,8.999999999999999e-08,0.0,0.0,0.0,8.999999999999999e-08,0.0,0.0,0.0,8.999999999999999e-08
1728916728.8885984,192693,1728916728,870885184,base_link,-0.0028616742494385794,0.003294168832847463,-0.7069678006237855,-0.707232273127689,1.0,0.0,0.0,0.0,1.0,0.0,0.0,0.0,1.0,0.0005230859387665987,-0.0003362775314599276,-0.00040196266490966076,1.2184696791468346e-07,0.0,0.0,0.0,1.2184696791468346e-07,0.0,0.0,0.0,1.2184696791468346e-07,0.08825985,1.1973653485259817e-15,9.77723005,8.999999999999999e-08,0.0,0.0,0.0,8.999999999999999e-08,0.0,0.0,0.0,8.999999999999999e-08
1728916728.988006,192694,1728916728,971059264,base_link,-0.0028692667685684715,0.0032938280308167276,-0.7069574463035702,-0.7072425942497022,1.0,0.0,0.0,0.0,1.0,0.0,0.0,0.0,1.0,0.0008307918906211853,0.0012215785682201385,-0.0007524403044953943,1.2184696791468346e-07,0.0,0.0,0.0,1.2184696791468346e-07,0.0,0.0,0.0,1.2184696791468346e-07,0.08825985,1.1973653485259817e-15,9.77723005,8.999999999999999e-08,0.0,0.0,0.0,8.999999999999999e-08,0.0,0.0,0.0,8.999999999999999e-08
1728916729.0877998,192695,1728916729,71234112,base_link,-0.002874104275460002,0.0032986447452288715,-0.7069586021086156,-0.7072413968173036,1.0,0.0,0.0,0.0,1.0,0.0,0.0,0.0,1.0,-0.00022078747861087322,0.00027683482039719815,-0.0002448186278343201,1.2184696791468346e-07,0.0,0.0,0.0,1.2184696791468346e-07,0.0,0.0,0.0,1.2184696791468346e-07,0.08825985,1.1973653485259817e-15,9.77723005,8.999999999999999e-08,0.0,0.0,0.0,8.999999999999999e-08,0.0,0.0,0.0,8.999999999999999e-08
1728916729.1886368,192696,1728916729,171411520,base_link,-0.002903577482360486,0.0032800314416291565,-0.7069727461275913,-0.7072272243518047,1.0,0.0,0.0,0.0,1.0,0.0,0.0,0.0,1.0,0.0009009595960378647,3.3186748623847955e-05,-4.691106732934714e-05,1.2184696791468346e-07,0.0,0.0,0.0,1.2184696791468346e-07,0.0,0.0,0.0,1.2184696791468346e-07,0.08825985,1.1973653485259817e-15,9.77723005,8.999999999999999e-08,0.0,0.0,0.0,8.999999999999999e-08,0.0,0.0,0.0,8.999999999999999e-08
1728916729.2893682,192697,1728916729,271588160,base_link,-0.0029114102332089197,0.003279600545816791,-0.7069620494032205,-0.7072378868629087,1.0,0.0,0.0,0.0,1.0,0.0,0.0,0.0,1.0,-0.00017233635298907757,-0.0005120959831401707,-0.0006414846284314989,1.2184696791468346e-07,0.0,0.0,0.0,1.2184696791468346e-07,0.0,0.0,0.0,1.2184696791468346e-07,0.08825985,1.1973653485259817e-15,9.77723005,8.999999999999999e-08,0.0,0.0,0.0,8.999999999999999e-08,0.0,0.0,0.0,8.999999999999999e-08
1728916729.388911,192698,1728916729,371765312,base_link,-0.002925840952181114,0.0032480021599186077,-0.7069578651040342,-0.7072421557742706,1.0,0.0,0.0,0.0,1.0,0.0,0.0,0.0,1.0,-0.0004993772599846125,0.001493974821642041,-0.0008937821257859471,1.2184696791468346e-07,0.0,0.0,0.0,1.2184696791468346e-07,0.0,0.0,0.0,1.2184696791468346e-07,0.0980665,1.1961643802726959e-15,9.7674234,8.999999999999999e-08,0.0,0.0,0.0,8.999999999999999e-08,0.0,0.0,0.0,8.999999999999999e-08
1728916729.4890425,192699,1728916729,471942464,base_link,-0.0029397657926927994,0.003250482746987954,-0.7069810079994078,-0.7072189522822032,1.0,0.0,0.0,0.0,1.0,0.0,0.0,0.0,1.0,-0.0005661463364958763,-0.0001638012472540139,0.0009104511700570583,1.2184696791468346e-07,0.0,0.0,0.0,1.2184696791468346e-07,0.0,0.0,0.0,1.2184696791468346e-07,0.0980665,1.1961643802726959e-15,9.7674234,8.999999999999999e-08,0.0,0.0,0.0,8.999999999999999e-08,0.0,0.0,0.0,8.999999999999999e-08
1728916729.5891674,192700,1728916729,572119360,base_link,-0.00292221368125234,0.0032765809748101413,-0.7069842637831574,-0.7072156498885639,1.0,0.0,0.0,0.0,1.0,0.0,0.0,0.0,1.0,-0.0011833319440484047,-4.9173017032444436e-05,0.00031820032745599747,1.2184696791468346e-07,0.0,0.0,0.0,1.2184696791468346e-07,0.0,0.0,0.0,1.2184696791468346e-07,0.0980665,1.1961643802726959e-15,9.7674234,8.999999999999999e-08,0.0,0.0,0.0,8.999999999999999e-08,0.0,0.0,0.0,8.999999999999999e-08
1728916729.6890054,192701,1728916729,672296000,base_link,-0.00289888115377646,0.0032704718315395673,-0.7069738185152031,-0.7072262158857576,1.0,0.0,0.0,0.0,1.0,0.0,0.0,0.0,1.0,-0.0004162527620792389,0.00014993175864219674,0.0007562418468296528,1.2184696791468346e-07,0.0,0.0,0.0,1.2184696791468346e-07,0.0,0.0,0.0,1.2184696791468346e-07,0.0980665,1.1961643802726959e-15,9.7674234,8.999999999999999e-08,0.0,0.0,0.0,8.999999999999999e-08,0.0,0.0,0.0,8.999999999999999e-08
1728916729.789044,192702,1728916729,772471616,base_link,-0.0029341396767203075,0.003262293648012894,-0.7069754626986912,-0.7072244646549519,1.0,0.0,0.0,0.0,1.0,0.0,0.0,0.0,1.0,1.530023291707039e-05,0.00014830834697932005,-5.6583783589303514e-05,1.2184696791468346e-07,0.0,0.0,0.0,1.2184696791468346e-07,0.0,0.0,0.0,1.2184696791468346e-07,0.0980665,1.1961643802726959e-15,9.7674234,8.999999999999999e-08,0.0,0.0,0.0,8.999999999999999e-08,0.0,0.0,0.0,8.999999999999999e-08
1728916729.8889456,192703,1728916729,872646464,base_link,-0.0029435408987883247,0.003233233786340916,-0.7069881567295553,-0.7072118692516448,1.0,0.0,0.0,0.0,1.0,0.0,0.0,0.0,1.0,-9.015575051307678e-05,0.00019178108777850883,0.001372269238345325,1.2184696791468346e-07,0.0,0.0,0.0,1.2184696791468346e-07,0.0,0.0,0.0,1.2184696791468346e-07,0.0784532,1.1985663167792674e-15,9.7870367,8.999999999999999e-08,0.0,0.0,0.0,8.999999999999999e-08,0.0,0.0,0.0,8.999999999999999e-08
1728916729.9900112,192704,1728916729,972822592,base_link,-0.002950883536442128,0.0032663930291249752,-0.7069878709279886,-0.7072119719883446,1.0,0.0,0.0,0.0,1.0,0.0,0.0,0.0,1.0,9.796698577702045e-05,-6.273679900914425e-05,0.0004917503101751208,1.2184696791468346e-07,0.0,0.0,0.0,1.2184696791468346e-07,0.0,0.0,0.0,1.2184696791468346e-07,0.0784532,1.1985663167792674e-15,9.7870367,8.999999999999999e-08,0.0,0.0,0.0,8.999999999999999e-08,0.0,0.0,0.0,8.999999999999999e-08
1728916730.0909514,192705,1728916730,72998208,base_link,-0.0029346592430435454,0.0032689601499142364,-0.706998898624034,-0.7072010032650324,1.0,0.0,0.0,0.0,1.0,0.0,0.0,0.0,1.0,-0.0011635173577815294,0.001579197938553989,0.0005100751295685766,1.2184696791468346e-07,0.0,0.0,0.0,1.2184696791468346e-07,0.0,0.0,0.0,1.2184696791468346e-07,0.0784532,1.1985663167792674e-15,9.7870367,8.999999999999999e-08,0.0,0.0,0.0,8.999999999999999e-08,0.0,0.0,0.0,8.999999999999999e-08
1728916730.190811,192706,1728916730,173173824,base_link,-0.0029295922878346896,0.0032760543145626663,-0.7070150166875485,-0.7071848776207397,1.0,0.0,0.0,0.0,1.0,0.0,0.0,0.0,1.0,0.00017425650730729103,0.001019028830341995,0.0009969337843358515,1.2184696791468346e-07,0.0,0.0,0.0,1.2184696791468346e-07,0.0,0.0,0.0,1.2184696791468346e-07,0.0784532,1.1985663167792674e-15,9.7870367,8.999999999999999e-08,0.0,0.0,0.0,8.999999999999999e-08,0.0,0.0,0.0,8.999999999999999e-08
1728916730.289685,192707,1728916730,273348416,base_link,-0.0029621610844621847,0.003277530867137048,-0.7069968045768569,-0.7072029423802181,1.0,0.0,0.0,0.0,1.0,0.0,0.0,0.0,1.0,0.0005458991508930922,-0.0011929470347240567,-0.0007777424762025474,1.2184696791468346e-07,0.0,0.0,0.0,1.2184696791468346e-07,0.0,0.0,0.0,1.2184696791468346e-07,0.0784532,1.1985663167792674e-15,9.7870367,8.999999999999999e-08,0.0,0.0,0.0,8.999999999999999e-08,0.0,0.0,0.0,8.999999999999999e-08
1728916730.3898396,192708,1728916730,373525568,base_link,-0.0029752551607112967,0.003268404449881735,-0.7070192013993898,-0.7071805386474161,1.0,0.0,0.0,0.0,1.0,0.0,0.0,0.0,1.0,-0.00037922756746411324,0.0008634827681817115,0.0010707853361964226,1.2184696791468346e-07,0.0,0.0,0.0,1.2184696791468346e-07,0.0,0.0,0.0,1.2184696791468346e-07,0.06864655,1.1973653485259817e-15,9.77723005,8.999999999999999e-08,0.0,0.0,0.0,8.999999999999999e-08,0.0,0.0,0.0,8.999999999999999e-08
1728916730.4913876,192709,1728916730,473703232,base_link,-0.0029837141039773924,0.003250179865228413,-0.707022975156021,-0.707176814087197,1.0,0.0,0.0,0.0,1.0,0.0,0.0,0.0,1.0,0.0005142292939126492,5.4774456657469164e-05,-0.0008961809799075127,1.2184696791468346e-07,0.0,0.0,0.0,1.2184696791468346e-07,0.0,0.0,0.0,1.2184696791468346e-07,0.06864655,1.1973653485259817e-15,9.77723005,8.999999999999999e-08,0.0,0.0,0.0,8.999999999999999e-08,0.0,0.0,0.0,8.999999999999999e-08
1728916730.5908859,192710,1728916730,573880128,base_link,-0.0030093730575361465,0.003234612397998496,-0.7070526170855096,-0.7071471400132839,1.0,0.0,0.0,0.0,1.0,0.0,0.0,0.0,1.0,0.000909081194549799,0.0008651749230921268,2.652686089277257e-05,1.2184696791468346e-07,0.0,0.0,0.0,1.2184696791468346e-07,0.0,0.0,0.0,1.2184696791468346e-07,0.06864655,1.1973653485259817e-15,9.77723005,8.999999999999999e-08,0.0,0.0,0.0,8.999999999999999e-08,0.0,0.0,0.0,8.999999999999999e-08
1728916730.7160192,192711,1728916730,674056512,base_link,-0.0030086398406470216,0.003244339498642005,-0.7070533842466188,-0.7071463315134499,1.0,0.0,0.0,0.0,1.0,0.0,0.0,0.0,1.0,0.00032796687446534634,0.0001601732801645994,-0.000275852857157588,1.2184696791468346e-07,0.0,0.0,0.0,1.2184696791468346e-07,0.0,0.0,0.0,1.2184696791468346e-07,0.06864655,1.1973653485259817e-15,9.77723005,8.999999999999999e-08,0.0,0.0,0.0,8.999999999999999e-08,0.0,0.0,0.0,8.999999999999999e-08
1728916730.7907007,192712,1728916730,774233664,base_link,-0.0029757459863777474,0.0032341385278900773,-0.707041022572271,-0.7071588772572713,1.0,0.0,0.0,0.0,1.0,0.0,0.0,0.0,1.0,-0.0009582252241671085,0.00033082312438637013,-0.0005917628295719624,1.2184696791468346e-07,0.0,0.0,0.0,1.2184696791468346e-07,0.0,0.0,0.0,1.2184696791468346e-07,0.06864655,1.1973653485259817e-15,9.77723005,8.999999999999999e-08,0.0,0.0,0.0,8.999999999999999e-08,0.0,0.0,0.0,8.999999999999999e-08
1728916730.8915672,192713,1728916730,874410304,base_link,-0.0029844340958520873,0.003263040241011814,-0.7070346403938873,-0.7071650889322798,1.0,0.0,0.0,0.0,1.0,0.0,0.0,0.0,1.0,2.7674948796629906e-05,-0.0016753586241975427,3.581249620765468e-05,1.2184696791468346e-07,0.0,0.0,0.0,1.2184696791468346e-07,0.0,0.0,0.0,1.2184696791468346e-07,0.0784532,1.1973653485259817e-15,9.77723005,8.999999999999999e-08,0.0,0.0,0.0,8.999999999999999e-08,0.0,0.0,0.0,8.999999999999999e-08
1728916730.9911146,192714,1728916730,974586432,base_link,-0.0030030982914806136,0.0032471537371791966,-0.7070196572476984,-0.7071800631088276,1.0,0.0,0.0,0.0,1.0,0.0,0.0,0.0,1.0,0.001467245165258646,-0.0006773904897272587,-9.284447878599159e-05,1.2184696791468346e-07,0.0,0.0,0.0,1.2184696791468346e-07,0.0,0.0,0.0,1.2184696791468346e-07,0.0784532,1.1973653485259817e-15,9.77723005,8.999999999999999e-08,0.0,0.0,0.0,8.999999999999999e-08,0.0,0.0,0.0,8.999999999999999e-08
1728916731.0918372,192715,1728916731,74762304,base_link,-0.0030151778247624974,0.0032793199305357007,-0.7070146807987314,-0.7071848385666554,1.0,0.0,0.0,0.0,1.0,0.0,0.0,0.0,1.0,-0.0007266646716743708,-0.0012223157100379467,-4.8701418563723415e-05,1.2184696791468346e-07,0.0,0.0,0.0,1.2184696791468346e-07,0.0,0.0,0.0,1.2184696791468346e-07,0.0784532,1.1973653485259817e-15,9.77723005,8.999999999999999e-08,0.0,0.0,0.0,8.999999999999999e-08,0.0,0.0,0.0,8.999999999999999e-08
1728916731.1925445,192716,1728916731,174937152,base_link,-0.003008431296486712,0.0032329487002912506,-0.7069995755856021,-0.7072001820599414,1.0,0.0,0.0,0.0,1.0,0.0,0.0,0.0,1.0,0.0007648037280887365,0.0019830805249512196,-0.00034975726157426856,1.2184696791468346e-07,0.0,0.0,0.0,1.2184696791468346e-07,0.0,0.0,0.0,1.2184696791468346e-07,0.0784532,1.1973653485259817e-15,9.77723005,8.999999999999999e-08,0.0,0.0,0.0,8.999999999999999e-08,0.0,0.0,0.0,8.999999999999999e-08
1728916731.292156,192717,1728916731,275111488,base_link,-0.002981701792035359,0.0032232242195205933,-0.7070068602874622,-0.7071930569416803,1.0,0.0,0.0,0.0,1.0,0.0,0.0,0.0,1.0,-8.707237429916859e-05,0.001127523137256503,-0.0002705147489905359,1.2184696791468346e-07,0.0,0.0,0.0,1.2184696791468346e-07,0.0,0.0,0.0,1.2184696791468346e-07,0.0784532,1.1973653485259817e-15,9.77723005,8.999999999999999e-08,0.0,0.0,0.0,8.999999999999999e-08,0.0,0.0,0.0,8.999999999999999e-08
1728916731.3965516,192718,1728916731,375286336,base_link,-0.00300286822086864,0.0031963086067007475,-0.707029143619269,-0.7071708113792182,1.0,0.0,0.0,0.0,1.0,0.0,0.0,0.0,1.0,0.0010543505195528269,-0.0008223275654017925,-0.00011725362855941048,1.2184696791468346e-07,0.0,0.0,0.0,1.2184696791468346e-07,0.0,0.0,0.0,1.2184696791468346e-07,0.06864655,-0.009806649999998803,9.7674234,8.999999999999999e-08,0.0,0.0,0.0,8.999999999999999e-08,0.0,0.0,0.0,8.999999999999999e-08
1728916731.4930108,192719,1728916731,475461440,base_link,-0.0029751475381941178,0.0032158130502334807,-0.7070440045826486,-0.7071559818224571,1.0,0.0,0.0,0.0,1.0,0.0,0.0,0.0,1.0,0.0006114649586379528,-0.0003097214503213762,0.0010123683605343103,1.2184696791468346e-07,0.0,0.0,0.0,1.2184696791468346e-07,0.0,0.0,0.0,1.2184696791468346e-07,0.06864655,-0.009806649999998803,9.7674234,8.999999999999999e-08,0.0,0.0,0.0,8.999999999999999e-08,0.0,0.0,0.0,8.999999999999999e-08
1728916731.5917761,192720,1728916731,575636288,base_link,-0.0029631376792958563,0.003174594555428541,-0.7070275265959828,-0.7071726934773919,1.0,0.0,0.0,0.0,1.0,0.0,0.0,0.0,1.0,-0.0004684003069996834,0.0004843586357310414,-0.0002644902560859919,1.2184696791468346e-07,0.0,0.0,0.0,1.2184696791468346e-07,0.0,0.0,0.0,1.2184696791468346e-07,0.06864655,-0.009806649999998803,9.7674234,8.999999999999999e-08,0.0,0.0,0.0,8.999999999999999e-08,0.0,0.0,0.0,8.999999999999999e-08
1728916731.6920104,192721,1728916731,675810624,base_link,-0.0029298422632814216,0.0031727745339855547,-0.7070267815859459,-0.7071735852294597,1.0,0.0,0.0,0.0,1.0,0.0,0.0,0.0,1.0,0.0002772887237370014,0.00022952619474381198,-0.0008475638460367918,1.2184696791468346e-07,0.0,0.0,0.0,1.2184696791468346e-07,0.0,0.0,0.0,1.2184696791468346e-07,0.06864655,-0.009806649999998803,9.7674234,8.999999999999999e-08,0.0,0.0,0.0,8.999999999999999e-08,0.0,0.0,0.0,8.999999999999999e-08
1728916731.7933412,192722,1728916731,775984192,base_link,-0.0029295431553120026,0.0031693129579744455,-0.7070440235330914,-0.7071563632029432,1.0,0.0,0.0,0.0,1.0,0.0,0.0,0.0,1.0,0.00039909197948873043,-0.000936499796807766,0.00013081287033855926,1.2184696791468346e-07,0.0,0.0,0.0,1.2184696791468346e-07,0.0,0.0,0.0,1.2184696791468346e-07,0.06864655,-0.009806649999998803,9.7674234,8.999999999999999e-08,0.0,0.0,0.0,8.999999999999999e-08,0.0,0.0,0.0,8.999999999999999e-08
1728916731.8929684,192723,1728916731,876161856,base_link,-0.0029479901331144974,0.0031665644299974137,-0.7070349950075192,-0.7071653258316636,1.0,0.0,0.0,0.0,1.0,0.0,0.0,0.0,1.0,0.00020030024461448193,0.0008022814290598033,-0.001731215394102037,1.2184696791468346e-07,0.0,0.0,0.0,1.2184696791468346e-07,0.0,0.0,0.0,1.2184696791468346e-07,0.0784532,1.19496341201941e-15,9.75761675,8.999999999999999e-08,0.0,0.0,0.0,8.999999999999999e-08,0.0,0.0,0.0,8.999999999999999e-08
1728916731.9931266,192724,1728916731,976340544,base_link,-0.0029392424862422113,0.003148933405256351,-0.7070136077685284,-0.7071868236202836,1.0,0.0,0.0,0.0,1.0,0.0,0.0,0.0,1.0,-0.00034288037568330765,0.0010046510724350808,-0.0018484867177903654,1.2184696791468346e-07,0.0,0.0,0.0,1.2184696791468346e-07,0.0,0.0,0.0,1.2184696791468346e-07,0.0784532,1.19496341201941e-15,9.75761675,8.999999999999999e-08,0.0,0.0,0.0,8.999999999999999e-08,0.0,0.0,0.0,8.999999999999999e-08
1728916732.0928087,192725,1728916732,76518720,base_link,-0.0029396293633981744,0.0031223669719604333,-0.7070161798440683,-0.7071843683526937,1.0,0.0,0.0,0.0,1.0,0.0,0.0,0.0,1.0,-0.0009308971930295229,8.008512668311593e-05,-0.00023255252745002508,1.2184696791468346e-07,0.0,0.0,0.0,1.2184696791468346e-07,0.0,0.0,0.0,1.2184696791468346e-07,0.0784532,1.19496341201941e-15,9.75761675,8.999999999999999e-08,0.0,0.0,0.0,8.999999999999999e-08,0.0,0.0,0.0,8.999999999999999e-08
1728916732.193116,192726,1728916732,176696640,base_link,-0.002971176275782412,0.0031253821052119107,-0.7070155869747936,-0.707184815923619,1.0,0.0,0.0,0.0,1.0,0.0,0.0,0.0,1.0,0.0005305134691298008,-0.0004565134877339006,-0.0006363401189446448,1.2184696791468346e-07,0.0,0.0,0.0,1.2184696791468346e-07,0.0,0.0,0.0,1.2184696791468346e-07,0.0784532,1.19496341201941e-15,9.75761675,8.999999999999999e-08,0.0,0.0,0.0,8.999999999999999e-08,0.0,0.0,0.0,8.999999999999999e-08
1728916732.294277,192727,1728916732,276873280,base_link,-0.002955376311404757,0.003127387927338454,-0.70701730068075,-0.7071831599619125,1.0,0.0,0.0,0.0,1.0,0.0,0.0,0.0,1.0,-0.000592169351875782,0.000249833450652659,0.0006610524142161012,1.2184696791468346e-07,0.0,0.0,0.0,1.2184696791468346e-07,0.0,0.0,0.0,1.2184696791468346e-07,0.0784532,1.19496341201941e-15,9.75761675,8.999999999999999e-08,0.0,0.0,0.0,8.999999999999999e-08,0.0,0.0,0.0,8.999999999999999e-08
1728916732.3939688,192728,1728916732,377048896,base_link,-0.00295531027952088,0.003116070977540335,-0.7070283358067642,-0.7071721774851808,1.0,0.0,0.0,0.0,1.0,0.0,0.0,0.0,1.0,-0.0001848831307142973,5.9907208196818835e-05,7.797079160809516e-05,1.2184696791468346e-07,0.0,0.0,0.0,1.2184696791468346e-07,0.0,0.0,0.0,1.2184696791468346e-07,0.08825985,1.1985663167792674e-15,9.7870367,8.999999999999999e-08,0.0,0.0,0.0,8.999999999999999e-08,0.0,0.0,0.0,8.999999999999999e-08
1728916732.4941583,192729,1728916732,477224512,base_link,-0.002922137039540255,0.0031380685473754626,-0.7070025175190895,-0.7071980301602824,1.0,0.0,0.0,0.0,1.0,0.0,0.0,0.0,1.0,-0.00023759203031659126,0.00036064872983843083,-0.0006342981941998005,1.2184696791468346e-07,0.0,0.0,0.0,1.2184696791468346e-07,0.0,0.0,0.0,1.2184696791468346e-07,0.08825985,1.1985663167792674e-15,9.7870367,8.999999999999999e-08,0.0,0.0,0.0,8.999999999999999e-08,0.0,0.0,0.0,8.999999999999999e-08
1728916732.5944796,192730,1728916732,577401152,base_link,-0.002951975298460442,0.0031186490332881173,-0.7070073117747695,-0.7071931991804351,1.0,0.0,0.0,0.0,1.0,0.0,0.0,0.0,1.0,-4.729931242763996e-05,-0.00023552647326141604,-0.0006886335322633386,1.2184696791468346e-07,0.0,0.0,0.0,1.2184696791468346e-07,0.0,0.0,0.0,1.2184696791468346e-07,0.08825985,1.1985663167792674e-15,9.7870367,8.999999999999999e-08,0.0,0.0,0.0,8.999999999999999e-08,0.0,0.0,0.0,8.999999999999999e-08
1728916732.695924,192731,1728916732,677577792,base_link,-0.0029509042609537042,0.0030982023904962516,-0.707027196218237,-0.7071734137492507,1.0,0.0,0.0,0.0,1.0,0.0,0.0,0.0,1.0,0.0006855002138763666,4.39948635175825e-05,0.000669704400934279,1.2184696791468346e-07,0.0,0.0,0.0,1.2184696791468346e-07,0.0,0.0,0.0,1.2184696791468346e-07,0.08825985,1.1985663167792674e-15,9.7870367,8.999999999999999e-08,0.0,0.0,0.0,8.999999999999999e-08,0.0,0.0,0.0,8.999999999999999e-08
1728916732.7942746,192732,1728916732,777753664,base_link,-0.0029426707750398987,0.0031178423602884887,-0.7070171967051696,-0.7071833590455094,1.0,0.0,0.0,0.0,1.0,0.0,0.0,0.0,1.0,-0.0001824281644076109,5.994271486997599e-05,-0.00043170549906790257,1.2184696791468346e-07,0.0,0.0,0.0,1.2184696791468346e-07,0.0,0.0,0.0,1.2184696791468346e-07,0.08825985,1.1985663167792674e-15,9.7870367,8.999999999999999e-08,0.0,0.0,0.0,8.999999999999999e-08,0.0,0.0,0.0,8.999999999999999e-08
1728916732.8949974,192733,1728916732,877929024,base_link,-0.002968692734278183,0.003127033183997264,-0.7070292984566894,-0.7071711105883478,1.0,0.0,0.0,0.0,1.0,0.0,0.0,0.0,1.0,0.00011331867426633835,-0.0007585083367303014,0.00016599195078015336,1.2184696791468346e-07,0.0,0.0,0.0,1.2184696791468346e-07,0.0,0.0,0.0,1.2184696791468346e-07,0.06864655,1.1985663167792674e-15,9.7870367,8.999999999999999e-08,0.0,0.0,0.0,8.999999999999999e-08,0.0,0.0,0.0,8.999999999999999e-08
1728916732.995119,192734,1728916732,978103872,base_link,-0.002903934383490882,0.0031157249230600735,-0.7070137227310939,-0.7071870016432853,1.0,0.0,0.0,0.0,1.0,0.0,0.0,0.0,1.0,-0.0016373585676774383,0.001074720872566104,0.00044208974577486504,1.2184696791468346e-07,0.0,0.0,0.0,1.2184696791468346e-07,0.0,0.0,0.0,1.2184696791468346e-07,0.06864655,1.1985663167792674e-15,9.7870367,8.999999999999999e-08,0.0,0.0,0.0,8.999999999999999e-08,0.0,0.0,0.0,8.999999999999999e-08
1728916733.095437,192735,1728916733,78278208,base_link,-0.0028974608991988978,0.0031246420120929325,-0.7070106233405664,-0.7071900874702769,1.0,0.0,0.0,0.0,1.0,0.0,0.0,0.0,1.0,-0.00040508387610316277,0.0005929597537033259,-0.0012689015129581094,1.2184696791468346e-07,0.0,0.0,0.0,1.2184696791468346e-07,0.0,0.0,0.0,1.2184696791468346e-07,0.06864655,1.1985663167792674e-15,9.7870367,8.999999999999999e-08,0.0,0.0,0.0,8.999999999999999e-08,0.0,0.0,0.0,8.999999999999999e-08
1728916733.1951327,192736,1728916733,178452032,base_link,-0.002873845889748236,0.003141612828027436,-0.7069975052693648,-0.707203223141365,1.0,0.0,0.0,0.0,1.0,0.0,0.0,0.0,1.0,-0.0009031379595398903,-0.0011234767735004425,-0.0007194431964308022,1.2184696791468346e-07,0.0,0.0,0.0,1.2184696791468346e-07,0.0,0.0,0.0,1.2184696791468346e-07,0.06864655,1.1985663167792674e-15,9.7870367,8.999999999999999e-08,0.0,0.0,0.0,8.999999999999999e-08,0.0,0.0,0.0,8.999999999999999e-08
1728916733.2962925,192737,1728916733,278627136,base_link,-0.002895106010330151,0.0031334333164818548,-0.707018298302011,-0.7071823851192621,1.0,0.0,0.0,0.0,1.0,0.0,0.0,0.0,1.0,0.0011323688086122274,0.0013009241083636882,0.0013666171580553053,1.2184696791468346e-07,0.0,0.0,0.0,1.2184696791468346e-07,0.0,0.0,0.0,1.2184696791468346e-07,0.06864655,1.1985663167792674e-15,9.7870367,8.999999999999999e-08,0.0,0.0,0.0,8.999999999999999e-08,0.0,0.0,0.0,8.999999999999999e-08
1728916733.394941,192738,1728916733,378804288,base_link,-0.0029047653954470585,0.0031411927201016507,-0.70700510617159,-0.7071954999104499,1.0,0.0,0.0,0.0,1.0,0.0,0.0,0.0,1.0,-0.0003471840173006058,0.0003583751386031507,-0.0011099084513261914,1.2184696791468346e-07,0.0,0.0,0.0,1.2184696791468346e-07,0.0,0.0,0.0,1.2184696791468346e-07,0.0784532,-0.009806649999998801,9.7870367,8.999999999999999e-08,0.0,0.0,0.0,8.999999999999999e-08,0.0,0.0,0.0,8.999999999999999e-08
1728916733.4962873,192739,1728916733,478977856,base_link,-0.0029211311677832265,0.0031379938255351857,-0.7069988500407169,-0.7072017010928039,1.0,0.0,0.0,0.0,1.0,0.0,0.0,0.0,1.0,0.0012196730822324753,0.00016605493146926162,-0.0002484718570485711,1.2184696791468346e-07,0.0,0.0,0.0,1.2184696791468346e-07,0.0,0.0,0.0,1.2184696791468346e-07,0.0784532,-0.009806649999998801,9.7870367,8.999999999999999e-08,0.0,0.0,0.0,8.999999999999999e-08,0.0,0.0,0.0,8.999999999999999e-08
1728916733.5968668,192740,1728916733,579156544,base_link,-0.0028804426715285914,0.003112080574517099,-0.7070202064299845,-0.7071806315957867,1.0,0.0,0.0,0.0,1.0,0.0,0.0,0.0,1.0,-0.00013584177941083908,0.0014966116286814213,0.0008510890766046939,1.2184696791468346e-07,0.0,0.0,0.0,1.2184696791468346e-07,0.0,0.0,0.0,1.2184696791468346e-07,0.0784532,-0.009806649999998801,9.7870367,8.999999999999999e-08,0.0,0.0,0.0,8.999999999999999e-08,0.0,0.0,0.0,8.999999999999999e-08
1728916733.6968255,192741,1728916733,679334720,base_link,-0.002880522833531968,0.0030965236203589854,-0.7070215369090114,-0.7071793693798577,1.0,0.0,0.0,0.0,1.0,0.0,0.0,0.0,1.0,-0.00029836478643119335,0.0004565805429592728,-0.0006404370069503785,1.2184696791468346e-07,0.0,0.0,0.0,1.2184696791468346e-07,0.0,0.0,0.0,1.2184696791468346e-07,0.0784532,-0.009806649999998801,9.7870367,8.999999999999999e-08,0.0,0.0,0.0,8.999999999999999e-08,0.0,0.0,0.0,8.999999999999999e-08
1728916733.7962127,192742,1728916733,779511872,base_link,-0.0028515195812574023,0.003093530304115487,-0.7070488982347545,-0.707152143750802,1.0,0.0,0.0,0.0,1.0,0.0,0.0,0.0,1.0,0.0001553921028971672,-0.0019646165892481804,0.0013402294134721162,1.2184696791468346e-07,0.0,0.0,0.0,1.2184696791468346e-07,0.0,0.0,0.0,1.2184696791468346e-07,0.0784532,-0.009806649999998801,9.7870367,8.999999999999999e-08,0.0,0.0,0.0,8.999999999999999e-08,0.0,0.0,0.0,8.999999999999999e-08
1728916733.897858,192743,1728916733,879688256,base_link,-0.002819371036152439,0.0030728955894229284,-0.7070456402358425,-0.707155620131202,1.0,0.0,0.0,0.0,1.0,0.0,0.0,0.0,1.0,4.709954373538494e-05,-5.672348197549575e-05,0.0005295352311804891,1.2184696791468346e-07,0.0,0.0,0.0,1.2184696791468346e-07,0.0,0.0,0.0,1.2184696791468346e-07,0.06864655,1.1961643802726959e-15,9.7674234,8.999999999999999e-08,0.0,0.0,0.0,8.999999999999999e-08,0.0,0.0,0.0,8.999999999999999e-08
1728916733.998066,192744,1728916733,979864384,base_link,-0.0028008500187453877,0.003069438301846652,-0.7070463997824998,-0.7071549493161234,1.0,0.0,0.0,0.0,1.0,0.0,0.0,0.0,1.0,0.00027195154689252377,-0.0002002411056309937,0.001151230768300593,1.2184696791468346e-07,0.0,0.0,0.0,1.2184696791468346e-07,0.0,0.0,0.0,1.2184696791468346e-07,0.06864655,1.1961643802726959e-15,9.7674234,8.999999999999999e-08,0.0,0.0,0.0,8.999999999999999e-08,0.0,0.0,0.0,8.999999999999999e-08
1728916734.098214,192745,1728916734,80040256,base_link,-0.002783954500017237,0.0030383552791261328,-0.7070434093858052,-0.7071581401911713,1.0,0.0,0.0,0.0,1.0,0.0,0.0,0.0,1.0,-0.0009750442113727331,0.0007945576217025517,-0.0006511370884254576,1.2184696791468346e-07,0.0,0.0,0.0,1.2184696791468346e-07,0.0,0.0,0.0,1.2184696791468346e-07,0.06864655,1.1961643802726959e-15,9.7674234,8.999999999999999e-08,0.0,0.0,0.0,8.999999999999999e-08,0.0,0.0,0.0,8.999999999999999e-08
1728916734.1970265,192746,1728916734,180217152,base_link,-0.002770961768871131,0.003039897464431786,-0.7070381759407937,-0.7071634171509413,1.0,0.0,0.0,0.0,1.0,0.0,0.0,0.0,1.0,2.139899879693985e-05,6.586103700101369e-05,-0.0006010805955156684,1.2184696791468346e-07,0.0,0.0,0.0,1.2184696791468346e-07,0.0,0.0,0.0,1.2184696791468346e-07,0.06864655,1.1961643802726959e-15,9.7674234,8.999999999999999e-08,0.0,0.0,0.0,8.999999999999999e-08,0.0,0.0,0.0,8.999999999999999e-08
1728916734.2973433,192747,1728916734,280393280,base_link,-0.002766167754896692,0.003036770518317849,-0.7070487789065668,-0.707152848108175,1.0,0.0,0.0,0.0,1.0,0.0,0.0,0.0,1.0,4.380522295832634e-05,0.0005130516365170479,-0.0002695389557629824,1.2184696791468346e-07,0.0,0.0,0.0,1.2184696791468346e-07,0.0,0.0,0.0,1.2184696791468346e-07,0.06864655,1.1961643802726959e-15,9.7674234,8.999999999999999e-08,0.0,0.0,0.0,8.999999999999999e-08,0.0,0.0,0.0,8.999999999999999e-08
1728916734.3970392,192748,1728916734,380568128,base_link,-0.0027527425044213275,0.0030493336915366517,-0.7070563185564347,-0.7071453078131563,1.0,0.0,0.0,0.0,1.0,0.0,0.0,0.0,1.0,-0.0006136784795671701,-0.0013237240491434932,-0.0006027630297467111,1.2184696791468346e-07,0.0,0.0,0.0,1.2184696791468346e-07,0.0,0.0,0.0,1.2184696791468346e-07,0.06864655,1.1961643802726959e-15,9.7674234,8.999999999999999e-08,0.0,0.0,0.0,8.999999999999999e-08,0.0,0.0,0.0,8.999999999999999e-08
1728916734.498342,192749,1728916734,480743232,base_link,-0.002767902685443844,0.003072499234925865,-0.7070606285748986,-0.7071408388591657,1.0,0.0,0.0,0.0,1.0,0.0,0.0,0.0,1.0,-5.4238131269812584e-05,-0.0012212221045047045,5.60999615117909e-05,1.2184696791468346e-07,0.0,0.0,0.0,1.2184696791468346e-07,0.0,0.0,0.0,1.2184696791468346e-07,0.06864655,1.1961643802726959e-15,9.7674234,8.999999999999999e-08,0.0,0.0,0.0,8.999999999999999e-08,0.0,0.0,0.0,8.999999999999999e-08
1728916734.598422,192750,1728916734,580917824,base_link,-0.0027883606883080422,0.003054569084227421,-0.7070664399482374,-0.7071350254027214,1.0,0.0,0.0,0.0,1.0,0.0,0.0,0.0,1.0,0.0006685287225991488,-0.0012974763521924617,-0.0008869116427376865,1.2184696791468346e-07,0.0,0.0,0.0,1.2184696791468346e-07,0.0,0.0,0.0,1.2184696791468346e-07,0.06864655,1.1961643802726959e-15,9.7674234,8.999999999999999e-08,0.0,0.0,0.0,8.999999999999999e-08,0.0,0.0,0.0,8.999999999999999e-08
1728916734.6981454,192751,1728916734,681093952,base_link,-0.002802450504557417,0.0030556478290134337,-0.7070658890976088,-0.7071355158398724,1.0,0.0,0.0,0.0,1.0,0.0,0.0,0.0,1.0,-0.00034348759800195694,-0.0007398271700367333,-0.001053987885825336,1.2184696791468346e-07,0.0,0.0,0.0,1.2184696791468346e-07,0.0,0.0,0.0,1.2184696791468346e-07,0.06864655,1.1961643802726959e-15,9.7674234,8.999999999999999e-08,0.0,0.0,0.0,8.999999999999999e-08,0.0,0.0,0.0,8.999999999999999e-08
1728916734.7984076,192752,1728916734,781269312,base_link,-0.002784650026292469,0.003083594069336556,-0.7070687297708103,-0.7071326244433495,1.0,0.0,0.0,0.0,1.0,0.0,0.0,0.0,1.0,-0.001204569125548005,-3.718270454555751e-05,-0.00010481406934559345,1.2184696791468346e-07,0.0,0.0,0.0,1.2184696791468346e-07,0.0,0.0,0.0,1.2184696791468346e-07,0.06864655,1.1961643802726959e-15,9.7674234,8.999999999999999e-08,0.0,0.0,0.0,8.999999999999999e-08,0.0,0.0,0.0,8.999999999999999e-08
1728916734.898566,192753,1728916734,881446464,base_link,-0.002773336018175705,0.003068929065829896,-0.7070834473325778,-0.7071180161684446,1.0,0.0,0.0,0.0,1.0,0.0,0.0,0.0,1.0,-8.296570740640163e-05,-1.307972706854344e-05,-3.807258326560259e-05,1.2184696791468346e-07,0.0,0.0,0.0,1.2184696791468346e-07,0.0,0.0,0.0,1.2184696791468346e-07,0.08825985,1.1985663167792674e-15,9.7870367,8.999999999999999e-08,0.0,0.0,0.0,8.999999999999999e-08,0.0,0.0,0.0,8.999999999999999e-08
1728916734.9982038,192754,1728916734,981623360,base_link,-0.0027731264021338313,0.003070260394879424,-0.7070777860249863,-0.7071236721967871,1.0,0.0,0.0,0.0,1.0,0.0,0.0,0.0,1.0,0.0013211623299866915,-0.0008349084528163074,0.000713889254257083,1.2184696791468346e-07,0.0,0.0,0.0,1.2184696791468346e-07,0.0,0.0,0.0,1.2184696791468346e-07,0.08825985,1.1985663167792674e-15,9.7870367,8.999999999999999e-08,0.0,0.0,0.0,8.999999999999999e-08,0.0,0.0,0.0,8.999999999999999e-08
1728916735.0993576,192755,1728916735,81800000,base_link,-0.0027509036941007693,0.00309686816482385,-0.7070657980711104,-0.7071356299427284,1.0,0.0,0.0,0.0,1.0,0.0,0.0,0.0,1.0,0.0002294739242643118,0.00015602412167936558,-0.0004916500765830278,1.2184696791468346e-07,0.0,0.0,0.0,1.2184696791468346e-07,0.0,0.0,0.0,1.2184696791468346e-07,0.08825985,1.1985663167792674e-15,9.7870367,8.999999999999999e-08,0.0,0.0,0.0,8.999999999999999e-08,0.0,0.0,0.0,8.999999999999999e-08
1728916735.1993353,192756,1728916735,181977664,base_link,-0.0027720707543357147,0.0030986533468105983,-0.7070484222550346,-0.7071529131367807,1.0,0.0,0.0,0.0,1.0,0.0,0.0,0.0,1.0,0.000741469906643033,-0.00034473557025194174,-0.00043875840492546553,1.2184696791468346e-07,0.0,0.0,0.0,1.2184696791468346e-07,0.0,0.0,0.0,1.2184696791468346e-07,0.08825985,1.1985663167792674e-15,9.7870367,8.999999999999999e-08,0.0,0.0,0.0,8.999999999999999e-08,0.0,0.0,0.0,8.999999999999999e-08
1728916735.3006163,192757,1728916735,282154816,base_link,-0.002750085729415216,0.00308362279064387,-0.7070486676896522,-0.707152819281132,1.0,0.0,0.0,0.0,1.0,0.0,0.0,0.0,1.0,-0.001377068110741675,0.0013475606683641672,7.585494313389047e-05,1.2184696791468346e-07,0.0,0.0,0.0,1.2184696791468346e-07,0.0,0.0,0.0,1.2184696791468346e-07,0.08825985,1.1985663167792674e-15,9.7870367,8.999999999999999e-08,0.0,0.0,0.0,8.999999999999999e-08,0.0,0.0,0.0,8.999999999999999e-08
1728916735.42105,192758,1728916735,382332736,base_link,-0.0027296218246600622,0.0030689994675286874,-0.7070408127424117,-0.7071608158852644,1.0,0.0,0.0,0.0,1.0,0.0,0.0,0.0,1.0,-0.0002547104377299547,0.0012982573825865982,-0.0015066377818584444,1.2184696791468346e-07,0.0,0.0,0.0,1.2184696791468346e-07,0.0,0.0,0.0,1.2184696791468346e-07,0.06864655,1.1973653485259817e-15,9.77723005,8.999999999999999e-08,0.0,0.0,0.0,8.999999999999999e-08,0.0,0.0,0.0,8.999999999999999e-08
1728916735.4992332,192759,1728916735,482508608,base_link,-0.0027267883902542815,0.0030663553714270503,-0.7070412676638982,-0.707160383442143,1.0,0.0,0.0,0.0,1.0,0.0,0.0,0.0,1.0,0.0014228210784494877,-0.0006508426740765572,-7.251277565956108e-05,1.2184696791468346e-07,0.0,0.0,0.0,1.2184696791468346e-07,0.0,0.0,0.0,1.2184696791468346e-07,0.06864655,1.1973653485259817e-15,9.77723005,8.999999999999999e-08,0.0,0.0,0.0,8.999999999999999e-08,0.0,0.0,0.0,8.999999999999999e-08
1728916735.5994744,192760,1728916735,582683968,base_link,-0.002726024165049256,0.003055377292919275,-0.707042523058363,-0.7071591787208263,1.0,0.0,0.0,0.0,1.0,0.0,0.0,0.0,1.0,0.0002943233121186495,0.00030690070707350964,-0.00032196450047194963,1.2184696791468346e-07,0.0,0.0,0.0,1.2184696791468346e-07,0.0,0.0,0.0,1.2184696791468346e-07,0.06864655,1.1973653485259817e-15,9.77723005,8.999999999999999e-08,0.0,0.0,0.0,8.999999999999999e-08,0.0,0.0,0.0,8.999999999999999e-08
1728916735.700182,192761,1728916735,682858560,base_link,-0.0026648568085486097,0.0030412482397938253,-0.7070318464619685,-0.7071701474439608,1.0,0.0,0.0,0.0,1.0,0.0,0.0,0.0,1.0,-0.0009009107016026974,-0.00018331035971641543,-0.00022332230582833287,1.2184696791468346e-07,0.0,0.0,0.0,1.2184696791468346e-07,0.0,0.0,0.0,1.2184696791468346e-07,0.06864655,1.1973653485259817e-15,9.77723005,8.999999999999999e-08,0.0,0.0,0.0,8.999999999999999e-08,0.0,0.0,0.0,8.999999999999999e-08
1728916735.8004346,192762,1728916735,783034688,base_link,-0.002706224998783121,0.0030566256276596056,-0.7070264910648202,-0.707175278356502,1.0,0.0,0.0,0.0,1.0,0.0,0.0,0.0,1.0,0.00013998709619045258,-0.0009828597540035844,0.00013322685845196258,1.2184696791468346e-07,0.0,0.0,0.0,1.2184696791468346e-07,0.0,0.0,0.0,1.2184696791468346e-07,0.06864655,1.1973653485259817e-15,9.77723005,8.999999999999999e-08,0.0,0.0,0.0,8.999999999999999e-08,0.0,0.0,0.0,8.999999999999999e-08
1728916735.9005635,192763,1728916735,883208768,base_link,-0.0026755761545958433,0.003052567111873943,-0.7070025958224888,-0.7071993019132096,1.0,0.0,0.0,0.0,1.0,0.0,0.0,0.0,1.0,-0.001014404697343707,0.0013435059227049349,-0.002375742420554161,1.2184696791468346e-07,0.0,0.0,0.0,1.2184696791468346e-07,0.0,0.0,0.0,1.2184696791468346e-07,0.0784532,1.1985663167792674e-15,9.7870367,8.999999999999999e-08,0.0,0.0,0.0,8.999999999999999e-08,0.0,0.0,0.0,8.999999999999999e-08
1728916736.0006344,192764,1728916735,983383616,base_link,-0.0026660391241616994,0.003077938717671909,-0.7069859220554996,-0.7072158966991435,1.0,0.0,0.0,0.0,1.0,0.0,0.0,0.0,1.0,-0.0003695925697684288,2.0309467799961435e-05,-0.0010660861153155565,1.2184696791468346e-07,0.0,0.0,0.0,1.2184696791468346e-07,0.0,0.0,0.0,1.2184696791468346e-07,0.0784532,1.1985663167792674e-15,9.7870367,8.999999999999999e-08,0.0,0.0,0.0,8.999999999999999e-08,0.0,0.0,0.0,8.999999999999999e-08
1728916736.1005375,192765,1728916736,83557696,base_link,-0.0026663698083119365,0.0030765142753508426,-0.706982150527913,-0.7072196719314913,1.0,0.0,0.0,0.0,1.0,0.0,0.0,0.0,1.0,0.0015433556400239468,0.0005416182102635503,0.000273507903330028,1.2184696791468346e-07,0.0,0.0,0.0,1.2184696791468346e-07,0.0,0.0,0.0,1.2184696791468346e-07,0.0784532,1.1985663167792674e-15,9.7870367,8.999999999999999e-08,0.0,0.0,0.0,8.999999999999999e-08,0.0,0.0,0.0,8.999999999999999e-08
1728916736.200227,192766,1728916736,183731776,base_link,-0.0026669549931960354,0.0030569961478679733,-0.7069726087864519,-0.7072292927695335,1.0,0.0,0.0,0.0,1.0,0.0,0.0,0.0,1.0,-0.0006958155427128077,-0.0003074497217312457,-0.0013000320177525282,1.2184696791468346e-07,0.0,0.0,0.0,1.2184696791468346e-07,0.0,0.0,0.0,1.2184696791468346e-07,0.0784532,1.1985663167792674e-15,9.7870367,8.999999999999999e-08,0.0,0.0,0.0,8.999999999999999e-08,0.0,0.0,0.0,8.999999999999999e-08
1728916736.3013513,192767,1728916736,283904832,base_link,-0.0026804985446846775,0.003038135174417631,-0.7069929264087044,-0.7072090120114918,1.0,0.0,0.0,0.0,1.0,0.0,0.0,0.0,1.0,0.0016198812518268824,0.00025662337429821497,0.0004957102937623858,1.2184696791468346e-07,0.0,0.0,0.0,1.2184696791468346e-07,0.0,0.0,0.0,1.2184696791468346e-07,0.0784532,1.1985663167792674e-15,9.7870367,8.999999999999999e-08,0.0,0.0,0.0,8.999999999999999e-08,0.0,0.0,0.0,8.999999999999999e-08
1728916736.4008787,192768,1728916736,384079424,base_link,-0.0026823237525376684,0.003057544082657506,-0.7069833324580462,-0.7072185123354626,1.0,0.0,0.0,0.0,1.0,0.0,0.0,0.0,1.0,-0.0004120892845094204,-0.0008516106754541397,-5.7113124057650464e-05,1.2184696791468346e-07,0.0,0.0,0.0,1.2184696791468346e-07,0.0,0.0,0.0,1.2184696791468346e-07,0.08825985,1.1973653485259817e-15,9.77723005,8.999999999999999e-08,0.0,0.0,0.0,8.999999999999999e-08,0.0,0.0,0.0,8.999999999999999e-08
1728916736.5021932,192769,1728916736,484256320,base_link,-0.0026759607339800337,0.0030716777966629995,-0.7069786433407471,-0.7072231627214571,1.0,0.0,0.0,0.0,1.0,0.0,0.0,0.0,1.0,-0.0009410672355443239,-0.0002539298729971051,-8.097197860479352e-05,1.2184696791468346e-07,0.0,0.0,0.0,1.2184696791468346e-07,0.0,0.0,0.0,1.2184696791468346e-07,0.08825985,1.1973653485259817e-15,9.77723005,8.999999999999999e-08,0.0,0.0,0.0,8.999999999999999e-08,0.0,0.0,0.0,8.999999999999999e-08
1728916736.6029737,192770,1728916736,584433984,base_link,-0.002640600474196963,0.0030552063737538993,-0.7069583195890506,-0.7072436831156395,1.0,0.0,0.0,0.0,1.0,0.0,0.0,0.0,1.0,0.0005937393289059401,-0.0003754096105694771,0.0001463931985199452,1.2184696791468346e-07,0.0,0.0,0.0,1.2184696791468346e-07,0.0,0.0,0.0,1.2184696791468346e-07,0.08825985,1.1973653485259817e-15,9.77723005,8.999999999999999e-08,0.0,0.0,0.0,8.999999999999999e-08,0.0,0.0,0.0,8.999999999999999e-08
1728916736.7025433,192771,1728916736,684611392,base_link,-0.0026043086929684366,0.003065017120796215,-0.706960656563084,-0.7072414391975161,1.0,0.0,0.0,0.0,1.0,0.0,0.0,0.0,1.0,-0.0005352236330509186,0.0005653782282024623,0.0004681353457272052,1.2184696791468346e-07,0.0,0.0,0.0,1.2184696791468346e-07,0.0,0.0,0.0,1.2184696791468346e-07,0.08825985,1.1973653485259817e-15,9.77723005,8.999999999999999e-08,0.0,0.0,0.0,8.999999999999999e-08,0.0,0.0,0.0,8.999999999999999e-08
1728916736.801426,192772,1728916736,784788032,base_link,-0.0025907609889559125,0.0030764777829229185,-0.7069801539579065,-0.7072219490030016,1.0,0.0,0.0,0.0,1.0,0.0,0.0,0.0,1.0,0.00045021530240774155,0.0009310460882261395,-0.00026897445786744367,1.2184696791468346e-07,0.0,0.0,0.0,1.2184696791468346e-07,0.0,0.0,0.0,1.2184696791468346e-07,0.08825985,1.1973653485259817e-15,9.77723005,8.999999999999999e-08,0.0,0.0,0.0,8.999999999999999e-08,0.0,0.0,0.0,8.999999999999999e-08
1728916736.9031794,192773,1728916736,884964672,base_link,-0.0025832926370146694,0.0030788092025790747,-0.7069905475513911,-0.7072115759841814,1.0,0.0,0.0,0.0,1.0,0.0,0.0,0.0,1.0,-0.0012561657931655645,0.00045585678890347486,0.0005636913701891898,1.2184696791468346e-07,0.0,0.0,0.0,1.2184696791468346e-07,0.0,0.0,0.0,1.2184696791468346e-07,0.06864655,1.1973653485259817e-15,9.77723005,8.999999999999999e-08,0.0,0.0,0.0,8.999999999999999e-08,0.0,0.0,0.0,8.999999999999999e-08
1728916737.0028522,192774,1728916736,985140288,base_link,-0.002585795456380038,0.003094069477805154,-0.7069780973983236,-0.7072239462822019,1.0,0.0,0.0,0.0,1.0,0.0,0.0,0.0,1.0,-7.085176184773445e-05,-2.97505175694823e-05,0.0002349202986806631,1.2184696791468346e-07,0.0,0.0,0.0,1.2184696791468346e-07,0.0,0.0,0.0,1.2184696791468346e-07,0.06864655,1.1973653485259817e-15,9.77723005,8.999999999999999e-08,0.0,0.0,0.0,8.999999999999999e-08,0.0,0.0,0.0,8.999999999999999e-08
1728916737.1025515,192775,1728916737,85315648,base_link,-0.0026302219484300227,0.003095752728489862,-0.7069790409056506,-0.7072228319049609,1.0,0.0,0.0,0.0,1.0,0.0,0.0,0.0,1.0,0.0004198462702333927,6.812077481299633e-05,-0.000428082887083292,1.2184696791468346e-07,0.0,0.0,0.0,1.2184696791468346e-07,0.0,0.0,0.0,1.2184696791468346e-07,0.06864655,1.1973653485259817e-15,9.77723005,8.999999999999999e-08,0.0,0.0,0.0,8.999999999999999e-08,0.0,0.0,0.0,8.999999999999999e-08
1728916737.2027237,192776,1728916737,185491776,base_link,-0.0025995923349465344,0.0030875032749281056,-0.7069814711693204,-0.7072205517845778,1.0,0.0,0.0,0.0,1.0,0.0,0.0,0.0,1.0,-0.0005842708051204681,0.0002920828992500902,0.0002538081025704741,1.2184696791468346e-07,0.0,0.0,0.0,1.2184696791468346e-07,0.0,0.0,0.0,1.2184696791468346e-07,0.06864655,1.1973653485259817e-15,9.77723005,8.999999999999999e-08,0.0,0.0,0.0,8.999999999999999e-08,0.0,0.0,0.0,8.999999999999999e-08
1728916737.302477,192777,1728916737,285667648,base_link,-0.002574714578651906,0.003085184762827693,-0.7069667791433322,-0.7072353396624922,1.0,0.0,0.0,0.0,1.0,0.0,0.0,0.0,1.0,-5.845632404088974e-05,0.0010066288523375988,-0.0008051862241700293,1.2184696791468346e-07,0.0,0.0,0.0,1.2184696791468346e-07,0.0,0.0,0.0,1.2184696791468346e-07,0.06864655,1.1973653485259817e-15,9.77723005,8.999999999999999e-08,0.0,0.0,0.0,8.999999999999999e-08,0.0,0.0,0.0,8.999999999999999e-08
1728916737.4025533,192778,1728916737,385842496,base_link,-0.0026074063019757197,0.0030823209144823,-0.7069635987060953,-0.7072384115944803,1.0,0.0,0.0,0.0,1.0,0.0,0.0,0.0,1.0,0.0010349070653319359,-0.0004159800009801983,0.0007849534740671515,1.2184696791468346e-07,0.0,0.0,0.0,1.2184696791468346e-07,0.0,0.0,0.0,1.2184696791468346e-07,0.0784532,-0.019613299999998803,9.7870367,8.999999999999999e-08,0.0,0.0,0.0,8.999999999999999e-08,0.0,0.0,0.0,8.999999999999999e-08
1728916737.5032234,192779,1728916737,486017088,base_link,-0.002617179014309387,0.0030673709390013518,-0.7069636293679621,-0.7072384098452293,1.0,0.0,0.0,0.0,1.0,0.0,0.0,0.0,1.0,0.00016092602163553238,0.00021090451627969728,-0.0010351449018344283,1.2184696791468346e-07,0.0,0.0,0.0,1.2184696791468346e-07,0.0,0.0,0.0,1.2184696791468346e-07,0.0784532,-0.019613299999998803,9.7870367,8.999999999999999e-08,0.0,0.0,0.0,8.999999999999999e-08,0.0,0.0,0.0,8.999999999999999e-08
1728916737.6035843,192780,1728916737,586191168,base_link,-0.0026077241461759425,0.00305647099817005,-0.7069746427429856,-0.7072274826943892,1.0,0.0,0.0,0.0,1.0,0.0,0.0,0.0,1.0,0.000521473353728652,0.0005651809042319654,-0.0004618094535544515,1.2184696791468346e-07,0.0,0.0,0.0,1.2184696791468346e-07,0.0,0.0,0.0,1.2184696791468346e-07,0.0784532,-0.019613299999998803,9.7870367,8.999999999999999e-08,0.0,0.0,0.0,8.999999999999999e-08,0.0,0.0,0.0,8.999999999999999e-08
1728916737.7040677,192781,1728916737,686364480,base_link,-0.002612890484475435,0.0030688008695927142,-0.7069931770568209,-0.7072088820565261,1.0,0.0,0.0,0.0,1.0,0.0,0.0,0.0,1.0,0.0008098355028778315,0.00013916450552642354,0.0007507028058171272,1.2184696791468346e-07,0.0,0.0,0.0,1.2184696791468346e-07,0.0,0.0,0.0,1.2184696791468346e-07,0.0784532,-0.019613299999998803,9.7870367,8.999999999999999e-08,0.0,0.0,0.0,8.999999999999999e-08,0.0,0.0,0.0,8.999999999999999e-08
1728916737.8038049,192782,1728916737,786539072,base_link,-0.0026059953933168685,0.003075330365300012,-0.7070000558785545,-0.7072020023436548,1.0,0.0,0.0,0.0,1.0,0.0,0.0,0.0,1.0,0.0009976904839277267,-0.00067290139850229,0.0013303852174431086,1.2184696791468346e-07,0.0,0.0,0.0,1.2184696791468346e-07,0.0,0.0,0.0,1.2184696791468346e-07,0.0784532,-0.019613299999998803,9.7870367,8.999999999999999e-08,0.0,0.0,0.0,8.999999999999999e-08,0.0,0.0,0.0,8.999999999999999e-08
1728916737.9036274,192783,1728916737,886713408,base_link,-0.0025898990256066038,0.0030787853279941784,-0.7069886927487491,-0.7072134061436874,1.0,0.0,0.0,0.0,1.0,0.0,0.0,0.0,1.0,0.00016681943088769913,-0.0007565226405858994,-3.3394200727343464e-05,1.2184696791468346e-07,0.0,0.0,0.0,1.2184696791468346e-07,0.0,0.0,0.0,1.2184696791468346e-07,0.0784532,1.1973653485259817e-15,9.77723005,8.999999999999999e-08,0.0,0.0,0.0,8.999999999999999e-08,0.0,0.0,0.0,8.999999999999999e-08
1728916738.0041318,192784,1728916737,986889792,base_link,-0.0025714038719507693,0.0030999920061839004,-0.7069860114335487,-0.7072160614472577,1.0,0.0,0.0,0.0,1.0,0.0,0.0,0.0,1.0,-0.0010988486465066671,-0.0012872571824118495,-0.0001804882194846867,1.2184696791468346e-07,0.0,0.0,0.0,1.2184696791468346e-07,0.0,0.0,0.0,1.2184696791468346e-07,0.0784532,1.1973653485259817e-15,9.77723005,8.999999999999999e-08,0.0,0.0,0.0,8.999999999999999e-08,0.0,0.0,0.0,8.999999999999999e-08
1728916738.1071532,192785,1728916738,87067456,base_link,-0.0025685824765854745,0.0031037298592996084,-0.7069600742986542,-0.7072419830529456,1.0,0.0,0.0,0.0,1.0,0.0,0.0,0.0,1.0,0.000287085073068738,-0.0002227977383881808,-0.0004493712913244962,1.2184696791468346e-07,0.0,0.0,0.0,1.2184696791468346e-07,0.0,0.0,0.0,1.2184696791468346e-07,0.0784532,1.1973653485259817e-15,9.77723005,8.999999999999999e-08,0.0,0.0,0.0,8.999999999999999e-08,0.0,0.0,0.0,8.999999999999999e-08
1728916738.204778,192786,1728916738,187244608,base_link,-0.0025795761443449033,0.0031045870737458734,-0.7069588662959578,-0.7072431467971613,1.0,0.0,0.0,0.0,1.0,0.0,0.0,0.0,1.0,0.0006988570094108582,-0.0005729628028348089,-0.0005089371697977184,1.2184696791468346e-07,0.0,0.0,0.0,1.2184696791468346e-07,0.0,0.0,0.0,1.2184696791468346e-07,0.0784532,1.1973653485259817e-15,9.77723005,8.999999999999999e-08,0.0,0.0,0.0,8.999999999999999e-08,0.0,0.0,0.0,8.999999999999999e-08
1728916738.3044693,192787,1728916738,287421248,base_link,-0.002587140902842349,0.0030866713627766204,-0.706940412884806,-0.7072616430940583,1.0,0.0,0.0,0.0,1.0,0.0,0.0,0.0,1.0,0.0017914511263370514,0.0008172504603862762,-0.00020524044521152984,1.2184696791468346e-07,0.0,0.0,0.0,1.2184696791468346e-07,0.0,0.0,0.0,1.2184696791468346e-07,0.0784532,1.1973653485259817e-15,9.77723005,8.999999999999999e-08,0.0,0.0,0.0,8.999999999999999e-08,0.0,0.0,0.0,8.999999999999999e-08
1728916738.4046586,192788,1728916738,387597376,base_link,-0.0025988082795968506,0.0030775200029493858,-0.7069515956813048,-0.707250462304419,1.0,0.0,0.0,0.0,1.0,0.0,0.0,0.0,1.0,0.0005244759377092123,-0.00016889825928956257,0.0010678480612114072,1.2184696791468346e-07,0.0,0.0,0.0,1.2184696791468346e-07,0.0,0.0,0.0,1.2184696791468346e-07,0.06864655,1.1973653485259817e-15,9.77723005,8.999999999999999e-08,0.0,0.0,0.0,8.999999999999999e-08,0.0,0.0,0.0,8.999999999999999e-08
1728916738.504646,192789,1728916738,487772992,base_link,-0.0026133337633830866,0.0031177926626677834,-0.7069726447290031,-0.7072291916065347,1.0,0.0,0.0,0.0,1.0,0.0,0.0,0.0,1.0,-0.0004188232123851776,-0.00040342099964618683,4.9394438974559355e-05,1.2184696791468346e-07,0.0,0.0,0.0,1.2184696791468346e-07,0.0,0.0,0.0,1.2184696791468346e-07,0.06864655,1.1973653485259817e-15,9.77723005,8.999999999999999e-08,0.0,0.0,0.0,8.999999999999999e-08,0.0,0.0,0.0,8.999999999999999e-08
1728916738.6051054,192790,1728916738,587948096,base_link,-0.002622610132267069,0.0031105837253839713,-0.7069936004590472,-0.7072082402623252,1.0,0.0,0.0,0.0,1.0,0.0,0.0,0.0,1.0,-8.484837599098682e-05,-5.3415307775139734e-05,0.0005892770132049918,1.2184696791468346e-07,0.0,0.0,0.0,1.2184696791468346e-07,0.0,0.0,0.0,1.2184696791468346e-07,0.06864655,1.1973653485259817e-15,9.77723005,8.999999999999999e-08,0.0,0.0,0.0,8.999999999999999e-08,0.0,0.0,0.0,8.999999999999999e-08
1728916738.7057893,192791,1728916738,688124224,base_link,-0.002612090569511069,0.003086918354655938,-0.7070052133542205,-0.7071967733296594,1.0,0.0,0.0,0.0,1.0,0.0,0.0,0.0,1.0,-0.0008309886325150728,0.0013628305168822408,0.00031908345408737643,1.2184696791468346e-07,0.0,0.0,0.0,1.2184696791468346e-07,0.0,0.0,0.0,1.2184696791468346e-07,0.06864655,1.1973653485259817e-15,9.77723005,8.999999999999999e-08,0.0,0.0,0.0,8.999999999999999e-08,0.0,0.0,0.0,8.999999999999999e-08
1728916738.8055263,192792,1728916738,788299840,base_link,-0.0026081761318283354,0.003100899229925873,-0.707004863153423,-0.7071970767181102,1.0,0.0,0.0,0.0,1.0,0.0,0.0,0.0,1.0,-0.00015453086234629154,-1.2377160601318011e-05,-0.0010466227540746331,1.2184696791468346e-07,0.0,0.0,0.0,1.2184696791468346e-07,0.0,0.0,0.0,1.2184696791468346e-07,0.06864655,1.1973653485259817e-15,9.77723005,8.999999999999999e-08,0.0,0.0,0.0,8.999999999999999e-08,0.0,0.0,0.0,8.999999999999999e-08
1728916738.905974,192793,1728916738,888474688,base_link,-0.0026178094143156456,0.003091957685627328,-0.7070035055702151,-0.7071984374862318,1.0,0.0,0.0,0.0,1.0,0.0,0.0,0.0,1.0,0.0010283875744789839,-0.0005381964147090913,-0.0006931138923391699,1.2184696791468346e-07,0.0,0.0,0.0,1.2184696791468346e-07,0.0,0.0,0.0,1.2184696791468346e-07,0.08825985,1.1985663167792674e-15,9.7870367,8.999999999999999e-08,0.0,0.0,0.0,8.999999999999999e-08,0.0,0.0,0.0,8.999999999999999e-08
1728916739.005852,192794,1728916738,988648512,base_link,-0.0025991366514429948,0.003091742938418821,-0.7070129188785295,-0.707189096460863,1.0,0.0,0.0,0.0,1.0,0.0,0.0,0.0,1.0,-0.0012415454257279634,0.0004830313264392316,-0.0005594090325757862,1.2184696791468346e-07,0.0,0.0,0.0,1.2184696791468346e-07,0.0,0.0,0.0,1.2184696791468346e-07,0.08825985,1.1985663167792674e-15,9.7870367,8.999999999999999e-08,0.0,0.0,0.0,8.999999999999999e-08,0.0,0.0,0.0,8.999999999999999e-08
1728916739.1055012,192795,1728916739,88822080,base_link,-0.002632891069348777,0.0030754854920126387,-0.7070276549071082,-0.7071743098205424,1.0,0.0,0.0,0.0,1.0,0.0,0.0,0.0,1.0,0.0013643272686749697,0.00027640897314995544,0.0015469493810087442,1.2184696791468346e-07,0.0,0.0,0.0,1.2184696791468346e-07,0.0,0.0,0.0,1.2184696791468346e-07,0.08825985,1.1985663167792674e-15,9.7870367,8.999999999999999e-08,0.0,0.0,0.0,8.999999999999999e-08,0.0,0.0,0.0,8.999999999999999e-08
1728916739.2068336,192796,1728916739,188995648,base_link,-0.002590453794203059,0.003071296242766725,-0.7070248235141628,-0.7071773155463175,1.0,0.0,0.0,0.0,1.0,0.0,0.0,0.0,1.0,-0.00018014642409980297,-0.0009525578934699295,0.0017040933016687634,1.2184696791468346e-07,0.0,0.0,0.0,1.2184696791468346e-07,0.0,0.0,0.0,1.2184696791468346e-07,0.08825985,1.1985663167792674e-15,9.7870367,8.999999999999999e-08,0.0,0.0,0.0,8.999999999999999e-08,0.0,0.0,0.0,8.999999999999999e-08
1728916739.30653,192797,1728916739,289172288,base_link,-0.0025745401828799787,0.0030923768797401475,-0.7070222587230788,-0.707179846020937,1.0,0.0,0.0,0.0,1.0,0.0,0.0,0.0,1.0,-0.0003567312378436327,0.000878954364452511,-0.0005419607041403652,1.2184696791468346e-07,0.0,0.0,0.0,1.2184696791468346e-07,0.0,0.0,0.0,1.2184696791468346e-07,0.08825985,1.1985663167792674e-15,9.7870367,8.999999999999999e-08,0.0,0.0,0.0,8.999999999999999e-08,0.0,0.0,0.0,8.999999999999999e-08
1728916739.4069958,192798,1728916739,389348160,base_link,-0.002559941012146887,0.0030673032841092678,-0.7070422505967332,-0.7071600202384773,1.0,0.0,0.0,0.0,1.0,0.0,0.0,0.0,1.0,0.0009357528761029243,0.0005188545328564942,-2.126430626958615e-05,1.2184696791468346e-07,0.0,0.0,0.0,1.2184696791468346e-07,0.0,0.0,0.0,1.2184696791468346e-07,0.0784532,1.1997672850325534e-15,9.79684335,8.999999999999999e-08,0.0,0.0,0.0,8.999999999999999e-08,0.0,0.0,0.0,8.999999999999999e-08
1728916739.5068746,192799,1728916739,489525312,base_link,-0.0026126140616502666,0.003078974750592238,-0.7070639556865896,-0.7071380747287493,1.0,0.0,0.0,0.0,1.0,0.0,0.0,0.0,1.0,0.00041242409497499466,0.0005470513133332133,0.00015595729928463692,1.2184696791468346e-07,0.0,0.0,0.0,1.2184696791468346e-07,0.0,0.0,0.0,1.2184696791468346e-07,0.0784532,1.1997672850325534e-15,9.79684335,8.999999999999999e-08,0.0,0.0,0.0,8.999999999999999e-08,0.0,0.0,0.0,8.999999999999999e-08
1728916739.6070461,192800,1728916739,589701952,base_link,-0.002606937705905591,0.0030814556983251085,-0.707059409886809,-0.7071426301652971,1.0,0.0,0.0,0.0,1.0,0.0,0.0,0.0,1.0,0.0008458788506686687,0.00017225765623152261,0.00043189176358282566,1.2184696791468346e-07,0.0,0.0,0.0,1.2184696791468346e-07,0.0,0.0,0.0,1.2184696791468346e-07,0.0784532,1.1997672850325534e-15,9.79684335,8.999999999999999e-08,0.0,0.0,0.0,8.999999999999999e-08,0.0,0.0,0.0,8.999999999999999e-08
1728916739.707683,192801,1728916739,689878080,base_link,-0.0025998820140791983,0.003085909451936057,-0.7070641388679892,-0.7071379082634702,1.0,0.0,0.0,0.0,1.0,0.0,0.0,0.0,1.0,-0.0005043928977102041,0.0010127108544111252,-0.0006340183317661286,1.2184696791468346e-07,0.0,0.0,0.0,1.2184696791468346e-07,0.0,0.0,0.0,1.2184696791468346e-07,0.0784532,1.1997672850325534e-15,9.79684335,8.999999999999999e-08,0.0,0.0,0.0,8.999999999999999e-08,0.0,0.0,0.0,8.999999999999999e-08
1728916739.808328,192802,1728916739,790053440,base_link,-0.0025961710324277614,0.003050158914852424,-0.707055727293528,-0.7071464876020983,1.0,0.0,0.0,0.0,1.0,0.0,0.0,0.0,1.0,0.0005504291038960218,-9.337731171399362e-05,-0.00058271165471524,1.2184696791468346e-07,0.0,0.0,0.0,1.2184696791468346e-07,0.0,0.0,0.0,1.2184696791468346e-07,0.0784532,1.1997672850325534e-15,9.79684335,8.999999999999999e-08,0.0,0.0,0.0,8.999999999999999e-08,0.0,0.0,0.0,8.999999999999999e-08
1728916739.9088547,192803,1728916739,890228544,base_link,-0.002564053993660367,0.0030545118385200266,-0.7070579931068648,-0.7071443204666489,1.0,0.0,0.0,0.0,1.0,0.0,0.0,0.0,1.0,-0.0005886333528906107,0.0003606171812862158,9.216601029037988e-07,1.2184696791468346e-07,0.0,0.0,0.0,1.2184696791468346e-07,0.0,0.0,0.0,1.2184696791468346e-07,0.0784532,1.1985663167792674e-15,9.7870367,8.999999999999999e-08,0.0,0.0,0.0,8.999999999999999e-08,0.0,0.0,0.0,8.999999999999999e-08
1728916740.0093796,192804,1728916739,990402880,base_link,-0.0025544007867447033,0.003063916710949474,-0.7070549053295558,-0.7071474021025753,1.0,0.0,0.0,0.0,1.0,0.0,0.0,0.0,1.0,0.00090210628695786,-0.0013682112330570817,-0.0002529239282011984,1.2184696791468346e-07,0.0,0.0,0.0,1.2184696791468346e-07,0.0,0.0,0.0,1.2184696791468346e-07,0.0784532,1.1985663167792674e-15,9.7870367,8.999999999999999e-08,0.0,0.0,0.0,8.999999999999999e-08,0.0,0.0,0.0,8.999999999999999e-08
1728916740.107699,192805,1728916740,90576960,base_link,-0.002567617523102853,0.0030722386723193787,-0.7070717602575637,-0.7071304650034997,1.0,0.0,0.0,0.0,1.0,0.0,0.0,0.0,1.0,-0.00039642048068344593,4.904379602521666e-05,0.0006615209858864546,1.2184696791468346e-07,0.0,0.0,0.0,1.2184696791468346e-07,0.0,0.0,0.0,1.2184696791468346e-07,0.0784532,1.1985663167792674e-15,9.7870367,8.999999999999999e-08,0.0,0.0,0.0,8.999999999999999e-08,0.0,0.0,0.0,8.999999999999999e-08
1728916740.207817,192806,1728916740,190751808,base_link,-0.0025531954752244664,0.0030850084488153596,-0.707062699514346,-0.7071395215028091,1.0,0.0,0.0,0.0,1.0,0.0,0.0,0.0,1.0,0.00038549629971385,-0.0005749007686972617,0.0010994670446962118,1.2184696791468346e-07,0.0,0.0,0.0,1.2184696791468346e-07,0.0,0.0,0.0,1.2184696791468346e-07,0.0784532,1.1985663167792674e-15,9.7870367,8.999999999999999e-08,0.0,0.0,0.0,8.999999999999999e-08,0.0,0.0,0.0,8.999999999999999e-08
1728916740.3075578,192807,1728916740,290926400,base_link,-0.0025672715329066427,0.0030933822191388702,-0.7070581224997775,-0.7071440104465372,1.0,0.0,0.0,0.0,1.0,0.0,0.0,0.0,1.0,0.0005742725916206837,-3.816140815615659e-05,-0.00040754524525254965,1.2184696791468346e-07,0.0,0.0,0.0,1.2184696791468346e-07,0.0,0.0,0.0,1.2184696791468346e-07,0.0784532,1.1985663167792674e-15,9.7870367,8.999999999999999e-08,0.0,0.0,0.0,8.999999999999999e-08,0.0,0.0,0.0,8.999999999999999e-08
1728916740.4077137,192808,1728916740,391099968,base_link,-0.0025687325322625194,0.0031033959738226056,-0.7070540231542857,-0.7071480600892194,1.0,0.0,0.0,0.0,1.0,0.0,0.0,0.0,1.0,-0.0017864129040390253,0.0003164375666528939,-0.0006713045295327902,1.2184696791468346e-07,0.0,0.0,0.0,1.2184696791468346e-07,0.0,0.0,0.0,1.2184696791468346e-07,0.0784532,1.1961643802726959e-15,9.7674234,8.999999999999999e-08,0.0,0.0,0.0,8.999999999999999e-08,0.0,0.0,0.0,8.999999999999999e-08
1728916740.5089524,192809,1728916740,491273280,base_link,-0.0025628551974696615,0.0030948210044530636,-0.7070485613984645,-0.7071535799814274,1.0,0.0,0.0,0.0,1.0,0.0,0.0,0.0,1.0,0.0013645088765770197,0.000220687477849424,0.000935194140765816,1.2184696791468346e-07,0.0,0.0,0.0,1.2184696791468346e-07,0.0,0.0,0.0,1.2184696791468346e-07,0.0784532,1.1961643802726959e-15,9.7674234,8.999999999999999e-08,0.0,0.0,0.0,8.999999999999999e-08,0.0,0.0,0.0,8.999999999999999e-08
1728916740.608795,192810,1728916740,591445824,base_link,-0.0025787363318770843,0.0031242400095789317,-0.707041050159333,-0.707160902930076,1.0,0.0,0.0,0.0,1.0,0.0,0.0,0.0,1.0,-7.480336353182793e-05,-0.001274413545615971,-0.0007474715821444987,1.2184696791468346e-07,0.0,0.0,0.0,1.2184696791468346e-07,0.0,0.0,0.0,1.2184696791468346e-07,0.0784532,1.1961643802726959e-15,9.7674234,8.999999999999999e-08,0.0,0.0,0.0,8.999999999999999e-08,0.0,0.0,0.0,8.999999999999999e-08
1728916740.708832,192811,1728916740,691619648,base_link,-0.0026173213470235606,0.003130015660711614,-0.7070210366723831,-0.7071807451660708,1.0,0.0,0.0,0.0,1.0,0.0,0.0,0.0,1.0,-6.475765258073807e-05,0.000596635160036385,-0.0005122671136632563,1.2184696791468346e-07,0.0,0.0,0.0,1.2184696791468346e-07,0.0,0.0,0.0,1.2184696791468346e-07,0.0784532,1.1961643802726959e-15,9.7674234,8.999999999999999e-08,0.0,0.0,0.0,8.999999999999999e-08,0.0,0.0,0.0,8.999999999999999e-08
1728916740.8089902,192812,1728916740,791792960,base_link,-0.002596640581677977,0.003151194349323012,-0.7070228638151727,-0.7071789006145857,1.0,0.0,0.0,0.0,1.0,0.0,0.0,0.0,1.0,-0.00021461118012666702,0.0009502696339040995,-9.101827163249266e-05,1.2184696791468346e-07,0.0,0.0,0.0,1.2184696791468346e-07,0.0,0.0,0.0,1.2184696791468346e-07,0.0784532,1.1961643802726959e-15,9.7674234,8.999999999999999e-08,0.0,0.0,0.0,8.999999999999999e-08,0.0,0.0,0.0,8.999999999999999e-08
1728916740.9089642,192813,1728916740,891970880,base_link,-0.002619316846970697,0.0031492765782433745,-0.7070500718032093,-0.7071516224964526,1.0,0.0,0.0,0.0,1.0,0.0,0.0,0.0,1.0,-2.1259533241391182e-05,8.735817391425385e-05,0.0011151523794978857,1.2184696791468346e-07,0.0,0.0,0.0,1.2184696791468346e-07,0.0,0.0,0.0,1.2184696791468346e-07,0.06864655,1.1997672850325534e-15,9.79684335,8.999999999999999e-08,0.0,0.0,0.0,8.999999999999999e-08,0.0,0.0,0.0,8.999999999999999e-08
1728916741.0099416,192814,1728916740,992147776,base_link,-0.0026551096152990982,0.0031678262838263902,-0.7070671472600117,-0.7071343327368251,1.0,0.0,0.0,0.0,1.0,0.0,0.0,0.0,1.0,0.0007809977978467941,-0.00036175805144011963,0.0010886311065405607,1.2184696791468346e-07,0.0,0.0,0.0,1.2184696791468346e-07,0.0,0.0,0.0,1.2184696791468346e-07,0.06864655,1.1997672850325534e-15,9.79684335,8.999999999999999e-08,0.0,0.0,0.0,8.999999999999999e-08,0.0,0.0,0.0,8.999999999999999e-08
1728916741.1096754,192815,1728916741,92324416,base_link,-0.0026681485202285243,0.0031519198177534396,-0.7070590159673806,-0.7071424851641824,1.0,0.0,0.0,0.0,1.0,0.0,0.0,0.0,1.0,0.001605096273124218,0.0010429664980620146,0.0007299989229068159,1.2184696791468346e-07,0.0,0.0,0.0,1.2184696791468346e-07,0.0,0.0,0.0,1.2184696791468346e-07,0.06864655,1.1997672850325534e-15,9.79684335,8.999999999999999e-08,0.0,0.0,0.0,8.999999999999999e-08,0.0,0.0,0.0,8.999999999999999e-08
1728916741.2098038,192816,1728916741,192500800,base_link,-0.0027156458969004385,0.0031673626415017584,-0.70707200881134,-0.7071292437997146,1.0,0.0,0.0,0.0,1.0,0.0,0.0,0.0,1.0,0.00020110071636736393,-0.0015389624750241635,0.0018719423096627,1.2184696791468346e-07,0.0,0.0,0.0,1.2184696791468346e-07,0.0,0.0,0.0,1.2184696791468346e-07,0.06864655,1.1997672850325534e-15,9.79684335,8.999999999999999e-08,0.0,0.0,0.0,8.999999999999999e-08,0.0,0.0,0.0,8.999999999999999e-08
1728916741.3099644,192817,1728916741,292676416,base_link,-0.0027214355650672277,0.0031831095525470675,-0.7070650741089908,-0.7071360849067801,1.0,0.0,0.0,0.0,1.0,0.0,0.0,0.0,1.0,0.0006933750119060278,0.0006353095523081719,-0.0005644998745992781,1.2184696791468346e-07,0.0,0.0,0.0,1.2184696791468346e-07,0.0,0.0,0.0,1.2184696791468346e-07,0.06864655,1.1997672850325534e-15,9.79684335,8.999999999999999e-08,0.0,0.0,0.0,8.999999999999999e-08,0.0,0.0,0.0,8.999999999999999e-08
1728916741.4105995,192818,1728916741,392852800,base_link,-0.0027346567300797027,0.0031872694826948584,-0.7070616976500316,-0.707139391267428,1.0,0.0,0.0,0.0,1.0,0.0,0.0,0.0,1.0,-0.0010252303909510374,0.0004888692637905477,-0.0007636019727215172,1.2184696791468346e-07,0.0,0.0,0.0,1.2184696791468346e-07,0.0,0.0,0.0,1.2184696791468346e-07,0.0784532,1.1973653485259817e-15,9.77723005,8.999999999999999e-08,0.0,0.0,0.0,8.999999999999999e-08,0.0,0.0,0.0,8.999999999999999e-08
1728916741.5107853,192819,1728916741,493029184,base_link,-0.002758831289763123,0.003189365536080312,-0.7070816492762669,-0.7071193379155645,1.0,0.0,0.0,0.0,1.0,0.0,0.0,0.0,1.0,0.00027685449458658695,-0.000882702530361712,0.0003818897530436517,1.2184696791468346e-07,0.0,0.0,0.0,1.2184696791468346e-07,0.0,0.0,0.0,1.2184696791468346e-07,0.0784532,1.1973653485259817e-15,9.77723005,8.999999999999999e-08,0.0,0.0,0.0,8.999999999999999e-08,0.0,0.0,0.0,8.999999999999999e-08
1728916741.611471,192820,1728916741,593204800,base_link,-0.0027676924058457984,0.003176255276362137,-0.7070813992604627,-0.7071196123012231,1.0,0.0,0.0,0.0,1.0,0.0,0.0,0.0,1.0,0.0007599175442010164,0.0002578189596533775,-0.0004066141555085779,1.2184696791468346e-07,0.0,0.0,0.0,1.2184696791468346e-07,0.0,0.0,0.0,1.2184696791468346e-07,0.0784532,1.1973653485259817e-15,9.77723005,8.999999999999999e-08,0.0,0.0,0.0,8.999999999999999e-08,0.0,0.0,0.0,8.999999999999999e-08
1728916741.7116573,192821,1728916741,693380160,base_link,-0.002756442124193923,0.0031891423582737334,-0.7070560302827905,-0.7071449649389976,1.0,0.0,0.0,0.0,1.0,0.0,0.0,0.0,1.0,-0.000712924636900425,0.002006641821935773,-0.00010469986591488147,1.2184696791468346e-07,0.0,0.0,0.0,1.2184696791468346e-07,0.0,0.0,0.0,1.2184696791468346e-07,0.0784532,1.1973653485259817e-15,9.77723005,8.999999999999999e-08,0.0,0.0,0.0,8.999999999999999e-08,0.0,0.0,0.0,8.999999999999999e-08
1728916741.8119237,192822,1728916741,793555008,base_link,-0.0027649593022474016,0.003208404623083063,-0.7070690726205688,-0.7071318036146589,1.0,0.0,0.0,0.0,1.0,0.0,0.0,0.0,1.0,-0.00048571708612143993,0.000741376425139606,0.00010869128163903942,1.2184696791468346e-07,0.0,0.0,0.0,1.2184696791468346e-07,0.0,0.0,0.0,1.2184696791468346e-07,0.0784532,1.1973653485259817e-15,9.77723005,8.999999999999999e-08,0.0,0.0,0.0,8.999999999999999e-08,0.0,0.0,0.0,8.999999999999999e-08
1728916741.9107592,192823,1728916741,893729344,base_link,-0.002768953911309315,0.0032353514424360843,-0.7070644919050738,-0.7071362454876013,1.0,0.0,0.0,0.0,1.0,0.0,0.0,0.0,1.0,-0.0004258111584931612,-0.0001559066586196422,0.00045153533574193716,1.2184696791468346e-07,0.0,0.0,0.0,1.2184696791468346e-07,0.0,0.0,0.0,1.2184696791468346e-07,0.06864655,1.1985663167792674e-15,9.7870367,8.999999999999999e-08,0.0,0.0,0.0,8.999999999999999e-08,0.0,0.0,0.0,8.999999999999999e-08
1728916742.0159051,192824,1728916741,993906752,base_link,-0.002785522402485203,0.003219052356235986,-0.707055499174332,-0.7071452465047114,1.0,0.0,0.0,0.0,1.0,0.0,0.0,0.0,1.0,0.0004896230529993773,0.00039043033029884095,-0.0004994206828996539,1.2184696791468346e-07,0.0,0.0,0.0,1.2184696791468346e-07,0.0,0.0,0.0,1.2184696791468346e-07,0.06864655,1.1985663167792674e-15,9.7870367,8.999999999999999e-08,0.0,0.0,0.0,8.999999999999999e-08,0.0,0.0,0.0,8.999999999999999e-08
1728916742.1119373,192825,1728916742,94081600,base_link,-0.0027989797021866084,0.0032248292400658637,-0.7070649260523216,-0.7071357412375817,1.0,0.0,0.0,0.0,1.0,0.0,0.0,0.0,1.0,0.0003640507347881794,0.0009832081850618124,0.0001226711319759487,1.2184696791468346e-07,0.0,0.0,0.0,1.2184696791468346e-07,0.0,0.0,0.0,1.2184696791468346e-07,0.06864655,1.1985663167792674e-15,9.7870367,8.999999999999999e-08,0.0,0.0,0.0,8.999999999999999e-08,0.0,0.0,0.0,8.999999999999999e-08
1728916742.215167,192826,1728916742,194255936,base_link,-0.002809860323434773,0.0032220930868768084,-0.7070699740249728,-0.7071306630555817,1.0,0.0,0.0,0.0,1.0,0.0,0.0,0.0,1.0,0.0011712959967553616,2.2390042431652485e-05,-0.0005025872960686684,1.2184696791468346e-07,0.0,0.0,0.0,1.2184696791468346e-07,0.0,0.0,0.0,1.2184696791468346e-07,0.06864655,1.1985663167792674e-15,9.7870367,8.999999999999999e-08,0.0,0.0,0.0,8.999999999999999e-08,0.0,0.0,0.0,8.999999999999999e-08
1728916742.3129659,192827,1728916742,294432320,base_link,-0.002825921102536844,0.003229767214246991,-0.7070921393395517,-0.7071083999344655,1.0,0.0,0.0,0.0,1.0,0.0,0.0,0.0,1.0,0.0010752601083368063,0.0010106671834364533,0.0006369296461343764,1.2184696791468346e-07,0.0,0.0,0.0,1.2184696791468346e-07,0.0,0.0,0.0,1.2184696791468346e-07,0.06864655,1.1985663167792674e-15,9.7870367,8.999999999999999e-08,0.0,0.0,0.0,8.999999999999999e-08,0.0,0.0,0.0,8.999999999999999e-08
1728916742.4117913,192828,1728916742,394608704,base_link,-0.002797788066538316,0.003211788902934592,-0.7070927218881236,-0.7071080111601215,1.0,0.0,0.0,0.0,1.0,0.0,0.0,0.0,1.0,-0.0003669180441647768,3.2245647162199115e-05,0.0007938569178804755,1.2184696791468346e-07,0.0,0.0,0.0,1.2184696791468346e-07,0.0,0.0,0.0,1.2184696791468346e-07,0.08825985,1.1985663167792674e-15,9.7870367,8.999999999999999e-08,0.0,0.0,0.0,8.999999999999999e-08,0.0,0.0,0.0,8.999999999999999e-08
1728916742.5119684,192829,1728916742,494785600,base_link,-0.0028114814984580108,0.0032139781852561504,-0.7070683326418494,-0.7071323347797661,1.0,0.0,0.0,0.0,1.0,0.0,0.0,0.0,1.0,0.00044911238364875317,-0.0006577986059710383,-5.784165114164344e-05,1.2184696791468346e-07,0.0,0.0,0.0,1.2184696791468346e-07,0.0,0.0,0.0,1.2184696791468346e-07,0.08825985,1.1985663167792674e-15,9.7870367,8.999999999999999e-08,0.0,0.0,0.0,8.999999999999999e-08,0.0,0.0,0.0,8.999999999999999e-08
1728916742.613107,192830,1728916742,594961728,base_link,-0.0027908506816215605,0.003227790853434995,-0.7070361760370265,-0.7071645058213955,1.0,0.0,0.0,0.0,1.0,0.0,0.0,0.0,1.0,1.8984312191605568e-05,-0.00044952903408557177,-4.57977876067161e-05,1.2184696791468346e-07,0.0,0.0,0.0,1.2184696791468346e-07,0.0,0.0,0.0,1.2184696791468346e-07,0.08825985,1.1985663167792674e-15,9.7870367,8.999999999999999e-08,0.0,0.0,0.0,8.999999999999999e-08,0.0,0.0,0.0,8.999999999999999e-08
1728916742.7118933,192831,1728916742,695137344,base_link,-0.002794508731832315,0.0032279289823373986,-0.7070599085705436,-0.7071407617212059,1.0,0.0,0.0,0.0,1.0,0.0,0.0,0.0,1.0,0.0012228090781718493,-0.0003337995149195193,0.000830804230645299,1.2184696791468346e-07,0.0,0.0,0.0,1.2184696791468346e-07,0.0,0.0,0.0,1.2184696791468346e-07,0.08825985,1.1985663167792674e-15,9.7870367,8.999999999999999e-08,0.0,0.0,0.0,8.999999999999999e-08,0.0,0.0,0.0,8.999999999999999e-08
1728916742.8131223,192832,1728916742,795312192,base_link,-0.0027754790294210532,0.0032344444370442297,-0.7070488689786931,-0.7071518450525968,1.0,0.0,0.0,0.0,1.0,0.0,0.0,0.0,1.0,-0.0011997355613857508,0.001677091000601649,-0.0016910198610275986,1.2184696791468346e-07,0.0,0.0,0.0,1.2184696791468346e-07,0.0,0.0,0.0,1.2184696791468346e-07,0.08825985,1.1985663167792674e-15,9.7870367,8.999999999999999e-08,0.0,0.0,0.0,8.999999999999999e-08,0.0,0.0,0.0,8.999999999999999e-08
1728916742.9127812,192833,1728916742,895486784,base_link,-0.002773686637087289,0.0032247760850390703,-0.7070642336179153,-0.7071365335067552,1.0,0.0,0.0,0.0,1.0,0.0,0.0,0.0,1.0,-0.000441843643784523,-0.0005032089538872242,2.465583384037024e-05,1.2184696791468346e-07,0.0,0.0,0.0,1.2184696791468346e-07,0.0,0.0,0.0,1.2184696791468346e-07,0.0784532,1.1985663167792674e-15,9.7870367,8.999999999999999e-08,0.0,0.0,0.0,8.999999999999999e-08,0.0,0.0,0.0,8.999999999999999e-08
1728916743.0129786,192834,1728916742,995664448,base_link,-0.0027866419492067677,0.0032378077450009235,-0.7070926600837042,-0.7071079983166678,1.0,0.0,0.0,0.0,1.0,0.0,0.0,0.0,1.0,0.0009853264782577753,-0.00023818982299417244,0.0012019757414236665,1.2184696791468346e-07,0.0,0.0,0.0,1.2184696791468346e-07,0.0,0.0,0.0,1.2184696791468346e-07,0.0784532,1.1985663167792674e-15,9.7870367,8.999999999999999e-08,0.0,0.0,0.0,8.999999999999999e-08,0.0,0.0,0.0,8.999999999999999e-08
1728916743.1135886,192835,1728916743,95839296,base_link,-0.0028093221981139293,0.0032289210118474207,-0.7070895161501809,-0.7071110930599164,1.0,0.0,0.0,0.0,1.0,0.0,0.0,0.0,1.0,0.0007132377941161394,-0.0014560623094439507,0.0001142992405220868,1.2184696791468346e-07,0.0,0.0,0.0,1.2184696791468346e-07,0.0,0.0,0.0,1.2184696791468346e-07,0.0784532,1.1985663167792674e-15,9.7870367,8.999999999999999e-08,0.0,0.0,0.0,8.999999999999999e-08,0.0,0.0,0.0,8.999999999999999e-08
1728916743.2139401,192836,1728916743,196014144,base_link,-0.002807917277792029,0.0032243155518839224,-0.7070896248599665,-0.7071110109488997,1.0,0.0,0.0,0.0,1.0,0.0,0.0,0.0,1.0,-0.0003237638156861067,-0.0009794322540983556,0.0009576950687915088,1.2184696791468346e-07,0.0,0.0,0.0,1.2184696791468346e-07,0.0,0.0,0.0,1.2184696791468346e-07,0.0784532,1.1985663167792674e-15,9.7870367,8.999999999999999e-08,0.0,0.0,0.0,8.999999999999999e-08,0.0,0.0,0.0,8.999999999999999e-08
1728916743.3131626,192837,1728916743,296193088,base_link,-0.0028221792091994513,0.0032369797265606104,-0.7071003870768688,-0.7071001342543385,1.0,0.0,0.0,0.0,1.0,0.0,0.0,0.0,1.0,8.13875813037157e-05,-0.000881016836501658,0.00036947603803128015,1.2184696791468346e-07,0.0,0.0,0.0,1.2184696791468346e-07,0.0,0.0,0.0,1.2184696791468346e-07,0.0784532,1.1985663167792674e-15,9.7870367,8.999999999999999e-08,0.0,0.0,0.0,8.999999999999999e-08,0.0,0.0,0.0,8.999999999999999e-08
1728916743.4137635,192838,1728916743,396371264,base_link,-0.0028198191421302437,0.0032260928781584746,-0.7070974258116264,-0.7071031546778155,1.0,0.0,0.0,0.0,1.0,0.0,0.0,0.0,1.0,0.0005373072344809771,-0.0007061840733513236,-6.005633622407827e-06,1.2184696791468346e-07,0.0,0.0,0.0,1.2184696791468346e-07,0.0,0.0,0.0,1.2184696791468346e-07,0.08825985,-0.009806649999998801,9.7870367,8.999999999999999e-08,0.0,0.0,0.0,8.999999999999999e-08,0.0,0.0,0.0,8.999999999999999e-08
1728916743.51494,192839,1728916743,496549184,base_link,-0.002828502678507851,0.0032254290294746173,-0.7071114491364102,-0.7070890995344075,1.0,0.0,0.0,0.0,1.0,0.0,0.0,0.0,1.0,0.0005644632037729025,-3.674416802823535e-05,0.0007466624956578016,1.2184696791468346e-07,0.0,0.0,0.0,1.2184696791468346e-07,0.0,0.0,0.0,1.2184696791468346e-07,0.08825985,-0.009806649999998801,9.7870367,8.999999999999999e-08,0.0,0.0,0.0,8.999999999999999e-08,0.0,0.0,0.0,8.999999999999999e-08
1728916743.6146307,192840,1728916743,596726592,base_link,-0.0028501068312935906,0.003203069160586983,-0.707131979724572,-0.7070685825928136,1.0,0.0,0.0,0.0,1.0,0.0,0.0,0.0,1.0,0.0010140296071767807,-0.00010719639249145972,0.0009558849269524217,1.2184696791468346e-07,0.0,0.0,0.0,1.2184696791468346e-07,0.0,0.0,0.0,1.2184696791468346e-07,0.08825985,-0.009806649999998801,9.7870367,8.999999999999999e-08,0.0,0.0,0.0,8.999999999999999e-08,0.0,0.0,0.0,8.999999999999999e-08
1728916743.7146804,192841,1728916743,696904256,base_link,-0.0028706263067087108,0.003222479537504499,-0.7071307373364127,-0.7070696538844661,1.0,0.0,0.0,0.0,1.0,0.0,0.0,0.0,1.0,0.0003045538906008005,-2.8578680939972316e-05,0.0007017483003437519,1.2184696791468346e-07,0.0,0.0,0.0,1.2184696791468346e-07,0.0,0.0,0.0,1.2184696791468346e-07,0.08825985,-0.009806649999998801,9.7870367,8.999999999999999e-08,0.0,0.0,0.0,8.999999999999999e-08,0.0,0.0,0.0,8.999999999999999e-08
1728916743.8148074,192842,1728916743,797080640,base_link,-0.002872164061110237,0.0032189760428761767,-0.7071311905084028,-0.7070692103867983,1.0,0.0,0.0,0.0,1.0,0.0,0.0,0.0,1.0,0.000523037975654006,-0.0007280462887138128,0.00036538951098918926,1.2184696791468346e-07,0.0,0.0,0.0,1.2184696791468346e-07,0.0,0.0,0.0,1.2184696791468346e-07,0.08825985,-0.009806649999998801,9.7870367,8.999999999999999e-08,0.0,0.0,0.0,8.999999999999999e-08,0.0,0.0,0.0,8.999999999999999e-08
1728916743.9152029,192843,1728916743,897257536,base_link,-0.0028531603723908994,0.0032638436665691595,-0.7071225064514095,-0.7070777663526736,1.0,0.0,0.0,0.0,1.0,0.0,0.0,0.0,1.0,-0.0011653797701001167,-2.579274587333211e-05,-0.0006900131702423096,1.2184696791468346e-07,0.0,0.0,0.0,1.2184696791468346e-07,0.0,0.0,0.0,1.2184696791468346e-07,0.0784532,1.1973653485259817e-15,9.77723005,8.999999999999999e-08,0.0,0.0,0.0,8.999999999999999e-08,0.0,0.0,0.0,8.999999999999999e-08
1728916744.0157661,192844,1728916743,997432640,base_link,-0.0028672765448697957,0.00327818401394201,-0.7071129585268439,-0.7070871913125002,1.0,0.0,0.0,0.0,1.0,0.0,0.0,0.0,1.0,0.0004965648986399174,-0.0008199636358767747,0.0005485918372869493,1.2184696791468346e-07,0.0,0.0,0.0,1.2184696791468346e-07,0.0,0.0,0.0,1.2184696791468346e-07,0.0784532,1.1973653485259817e-15,9.77723005,8.999999999999999e-08,0.0,0.0,0.0,8.999999999999999e-08,0.0,0.0,0.0,8.999999999999999e-08
1728916744.1160495,192845,1728916744,97608768,base_link,-0.002854772283506381,0.003294301682072629,-0.7070982878570498,-0.7071018378997932,1.0,0.0,0.0,0.0,1.0,0.0,0.0,0.0,1.0,-0.00018866290338337421,0.0013630616012960672,-4.865135997533815e-05,1.2184696791468346e-07,0.0,0.0,0.0,1.2184696791468346e-07,0.0,0.0,0.0,1.2184696791468346e-07,0.0784532,1.1973653485259817e-15,9.77723005,8.999999999999999e-08,0.0,0.0,0.0,8.999999999999999e-08,0.0,0.0,0.0,8.999999999999999e-08
1728916744.2149215,192846,1728916744,197784128,base_link,-0.0028267670718021888,0.0032904027069599415,-0.707100434621285,-0.70709982180477,1.0,0.0,0.0,0.0,1.0,0.0,0.0,0.0,1.0,-3.470131196081638e-05,0.0004383183550089598,0.00034211250022053713,1.2184696791468346e-07,0.0,0.0,0.0,1.2184696791468346e-07,0.0,0.0,0.0,1.2184696791468346e-07,0.0784532,1.1973653485259817e-15,9.77723005,8.999999999999999e-08,0.0,0.0,0.0,8.999999999999999e-08,0.0,0.0,0.0,8.999999999999999e-08
1728916744.3150969,192847,1728916744,297959488,base_link,-0.0028599333702458703,0.0033135840455022067,-0.7071092759115281,-0.7070907387752762,1.0,0.0,0.0,0.0,1.0,0.0,0.0,0.0,1.0,0.0005125738680362701,-0.0006922971224412321,0.0006845956668257714,1.2184696791468346e-07,0.0,0.0,0.0,1.2184696791468346e-07,0.0,0.0,0.0,1.2184696791468346e-07,0.0784532,1.1973653485259817e-15,9.77723005,8.999999999999999e-08,0.0,0.0,0.0,8.999999999999999e-08,0.0,0.0,0.0,8.999999999999999e-08
1728916744.4367626,192848,1728916744,398133824,base_link,-0.002867994989348627,0.00333658662318127,-0.7070924220758202,-0.7071074518327445,1.0,0.0,0.0,0.0,1.0,0.0,0.0,0.0,1.0,0.00022953725419938564,-0.0002130424836650491,-0.00018001731950789687,1.2184696791468346e-07,0.0,0.0,0.0,1.2184696791468346e-07,0.0,0.0,0.0,1.2184696791468346e-07,0.08825985,1.1985663167792674e-15,9.7870367,8.999999999999999e-08,0.0,0.0,0.0,8.999999999999999e-08,0.0,0.0,0.0,8.999999999999999e-08
1728916744.5150726,192849,1728916744,498311232,base_link,-0.002879817898366558,0.0033326577183176516,-0.707098518044596,-0.707101326416901,1.0,0.0,0.0,0.0,1.0,0.0,0.0,0.0,1.0,0.0002900648396462202,0.0004143327241763473,0.0004672534996643662,1.2184696791468346e-07,0.0,0.0,0.0,1.2184696791468346e-07,0.0,0.0,0.0,1.2184696791468346e-07,0.08825985,1.1985663167792674e-15,9.7870367,8.999999999999999e-08,0.0,0.0,0.0,8.999999999999999e-08,0.0,0.0,0.0,8.999999999999999e-08
1728916744.6162097,192850,1728916744,598486336,base_link,-0.002888980750841804,0.0033476176249217318,-0.7070809708015727,-0.7071187651142941,1.0,0.0,0.0,0.0,1.0,0.0,0.0,0.0,1.0,0.00011979392729699612,-2.9832939617335827e-05,-0.00024296820629388094,1.2184696791468346e-07,0.0,0.0,0.0,1.2184696791468346e-07,0.0,0.0,0.0,1.2184696791468346e-07,0.08825985,1.1985663167792674e-15,9.7870367,8.999999999999999e-08,0.0,0.0,0.0,8.999999999999999e-08,0.0,0.0,0.0,8.999999999999999e-08
1728916744.717067,192851,1728916744,698663488,base_link,-0.0028481252125990533,0.003347797938656962,-0.7070769893435661,-0.7071229112202304,1.0,0.0,0.0,0.0,1.0,0.0,0.0,0.0,1.0,0.00043285614810884,-8.011003956198688e-05,0.0003812432987615466,1.2184696791468346e-07,0.0,0.0,0.0,1.2184696791468346e-07,0.0,0.0,0.0,1.2184696791468346e-07,0.08825985,1.1985663167792674e-15,9.7870367,8.999999999999999e-08,0.0,0.0,0.0,8.999999999999999e-08,0.0,0.0,0.0,8.999999999999999e-08
1728916744.8160887,192852,1728916744,798842432,base_link,-0.0028697053675626727,0.0033656636677985366,-0.7070693746017274,-0.7071303533292151,1.0,0.0,0.0,0.0,1.0,0.0,0.0,0.0,1.0,3.49218025803566e-05,-0.0006342859705910087,0.00011573883239179858,1.2184696791468346e-07,0.0,0.0,0.0,1.2184696791468346e-07,0.0,0.0,0.0,1.2184696791468346e-07,0.08825985,1.1985663167792674e-15,9.7870367,8.999999999999999e-08,0.0,0.0,0.0,8.999999999999999e-08,0.0,0.0,0.0,8.999999999999999e-08
1728916744.9171607,192853,1728916744,899020352,base_link,-0.0028492947608760684,0.003370189426403392,-0.7070713681181526,-0.707128420960521,1.0,0.0,0.0,0.0,1.0,0.0,0.0,0.0,1.0,-0.0004265890456736088,0.0007517429767176508,-0.0008052907651290299,1.2184696791468346e-07,0.0,0.0,0.0,1.2184696791468346e-07,0.0,0.0,0.0,1.2184696791468346e-07,0.0784532,1.1973653485259817e-15,9.77723005,8.999999999999999e-08,0.0,0.0,0.0,8.999999999999999e-08,0.0,0.0,0.0,8.999999999999999e-08
1728916745.0170882,192854,1728916744,999197504,base_link,-0.0028382401833047495,0.003393502206594345,-0.7070581444240637,-0.70714157630494,1.0,0.0,0.0,0.0,1.0,0.0,0.0,0.0,1.0,1.9619008526206017e-05,0.0010129314614459872,-0.0004908954724669458,1.2184696791468346e-07,0.0,0.0,0.0,1.2184696791468346e-07,0.0,0.0,0.0,1.2184696791468346e-07,0.0784532,1.1973653485259817e-15,9.77723005,8.999999999999999e-08,0.0,0.0,0.0,8.999999999999999e-08,0.0,0.0,0.0,8.999999999999999e-08
1728916745.1172776,192855,1728916745,99373632,base_link,-0.0028193767669986995,0.0033929688043918887,-0.7070421262828097,-0.7071576702114045,1.0,0.0,0.0,0.0,1.0,0.0,0.0,0.0,1.0,-0.0001756083220243454,-0.0001993051264435054,-0.0008148092310875654,1.2184696791468346e-07,0.0,0.0,0.0,1.2184696791468346e-07,0.0,0.0,0.0,1.2184696791468346e-07,0.0784532,1.1973653485259817e-15,9.77723005,8.999999999999999e-08,0.0,0.0,0.0,8.999999999999999e-08,0.0,0.0,0.0,8.999999999999999e-08
1728916745.2199826,192856,1728916745,199550272,base_link,-0.0028379674678187736,0.0033960644480086812,-0.7070113012288067,-0.7071883996656521,1.0,0.0,0.0,0.0,1.0,0.0,0.0,0.0,1.0,0.00013745902106165886,-0.0001563772093504668,-0.000650388072244823,1.2184696791468346e-07,0.0,0.0,0.0,1.2184696791468346e-07,0.0,0.0,0.0,1.2184696791468346e-07,0.0784532,1.1973653485259817e-15,9.77723005,8.999999999999999e-08,0.0,0.0,0.0,8.999999999999999e-08,0.0,0.0,0.0,8.999999999999999e-08
1728916745.3387902,192857,1728916745,299725888,base_link,-0.0028141216498830035,0.0033935133220362014,-0.7069983488066989,-0.7072014561433498,1.0,0.0,0.0,0.0,1.0,0.0,0.0,0.0,1.0,0.00019649905152618885,-0.00033753341995179653,6.931019015610222e-05,1.2184696791468346e-07,0.0,0.0,0.0,1.2184696791468346e-07,0.0,0.0,0.0,1.2184696791468346e-07,0.0784532,1.1973653485259817e-15,9.77723005,8.999999999999999e-08,0.0,0.0,0.0,8.999999999999999e-08,0.0,0.0,0.0,8.999999999999999e-08
1728916745.4174228,192858,1728916745,399902272,base_link,-0.0027853314155061003,0.0033783360950762164,-0.7069864058053781,-0.7072135821521869,1.0,0.0,0.0,0.0,1.0,0.0,0.0,0.0,1.0,-0.0005906273145228624,0.0019071063725277781,-0.0005809289868921044,1.2184696791468346e-07,0.0,0.0,0.0,1.2184696791468346e-07,0.0,0.0,0.0,1.2184696791468346e-07,0.08825985,1.1985663167792674e-15,9.7870367,8.999999999999999e-08,0.0,0.0,0.0,8.999999999999999e-08,0.0,0.0,0.0,8.999999999999999e-08
1728916745.5171366,192859,1728916745,500078656,base_link,-0.002766663819702965,0.003368574203834446,-0.7069744990457847,-0.7072256047246196,1.0,0.0,0.0,0.0,1.0,0.0,0.0,0.0,1.0,0.00013776193372905254,0.0010962486267089844,-0.0005189663497731091,1.2184696791468346e-07,0.0,0.0,0.0,1.2184696791468346e-07,0.0,0.0,0.0,1.2184696791468346e-07,0.08825985,1.1985663167792674e-15,9.7870367,8.999999999999999e-08,0.0,0.0,0.0,8.999999999999999e-08,0.0,0.0,0.0,8.999999999999999e-08
1728916745.6182992,192860,1728916745,600254272,base_link,-0.002777184709063117,0.003365252951465222,-0.7069737393422209,-0.7072263387333236,1.0,0.0,0.0,0.0,1.0,0.0,0.0,0.0,1.0,-7.958151400089264e-06,0.0003527731169015169,-9.909796062856917e-05,1.2184696791468346e-07,0.0,0.0,0.0,1.2184696791468346e-07,0.0,0.0,0.0,1.2184696791468346e-07,0.08825985,1.1985663167792674e-15,9.7870367,8.999999999999999e-08,0.0,0.0,0.0,8.999999999999999e-08,0.0,0.0,0.0,8.999999999999999e-08
1728916745.7170014,192861,1728916745,700431936,base_link,-0.0027709355593079823,0.003379822153455602,-0.7069719605281699,-0.7072280719437632,1.0,0.0,0.0,0.0,1.0,0.0,0.0,0.0,1.0,-0.000635192496702075,-3.416056279093026e-05,0.00010046444367617369,1.2184696791468346e-07,0.0,0.0,0.0,1.2184696791468346e-07,0.0,0.0,0.0,1.2184696791468346e-07,0.08825985,1.1985663167792674e-15,9.7870367,8.999999999999999e-08,0.0,0.0,0.0,8.999999999999999e-08,0.0,0.0,0.0,8.999999999999999e-08
1728916745.8181214,192862,1728916745,800609856,base_link,-0.0027833794229599426,0.003373307532068695,-0.7069565097834943,-0.7072434989945275,1.0,0.0,0.0,0.0,1.0,0.0,0.0,0.0,1.0,0.001162766246125102,-4.627543967217212e-05,-0.0003642028896138072,1.2184696791468346e-07,0.0,0.0,0.0,1.2184696791468346e-07,0.0,0.0,0.0,1.2184696791468346e-07,0.08825985,1.1985663167792674e-15,9.7870367,8.999999999999999e-08,0.0,0.0,0.0,8.999999999999999e-08,0.0,0.0,0.0,8.999999999999999e-08
1728916745.9184148,192863,1728916745,900787264,base_link,-0.002761945220691842,0.003347896247879103,-0.7069520247629699,-0.7072481869420723,1.0,0.0,0.0,0.0,1.0,0.0,0.0,0.0,1.0,0.00022482499480247498,0.0008228658698499202,-0.0007549111032858492,1.2184696791468346e-07,0.0,0.0,0.0,1.2184696791468346e-07,0.0,0.0,0.0,1.2184696791468346e-07,0.08825985,1.1985663167792674e-15,9.7870367,8.999999999999999e-08,0.0,0.0,0.0,8.999999999999999e-08,0.0,0.0,0.0,8.999999999999999e-08
1728916746.0181146,192864,1728916746,963904,base_link,-0.0027467928240705766,0.0033602834617728317,-0.7069396325699048,-0.7072605739938895,1.0,0.0,0.0,0.0,1.0,0.0,0.0,0.0,1.0,-0.00038744881749153137,0.00022199074737727637,-0.0003381437854841352,1.2184696791468346e-07,0.0,0.0,0.0,1.2184696791468346e-07,0.0,0.0,0.0,1.2184696791468346e-07,0.08825985,1.1985663167792674e-15,9.7870367,8.999999999999999e-08,0.0,0.0,0.0,8.999999999999999e-08,0.0,0.0,0.0,8.999999999999999e-08
1728916746.1182919,192865,1728916746,101140288,base_link,-0.0027133728986248004,0.0033682341975245413,-0.7069431066932804,-0.7072571926143676,1.0,0.0,0.0,0.0,1.0,0.0,0.0,0.0,1.0,-0.0002714416477829218,0.00048049772158265114,0.00012400757987052197,1.2184696791468346e-07,0.0,0.0,0.0,1.2184696791468346e-07,0.0,0.0,0.0,1.2184696791468346e-07,0.08825985,1.1985663167792674e-15,9.7870367,8.999999999999999e-08,0.0,0.0,0.0,8.999999999999999e-08,0.0,0.0,0.0,8.999999999999999e-08
1728916746.2189794,192866,1728916746,201316416,base_link,-0.0027219515422517073,0.0034080983829773335,-0.706944747956802,-0.7072553281393557,1.0,0.0,0.0,0.0,1.0,0.0,0.0,0.0,1.0,-0.0003960889298468828,-0.0002949009649455548,-0.00028028909582644696,1.2184696791468346e-07,0.0,0.0,0.0,1.2184696791468346e-07,0.0,0.0,0.0,1.2184696791468346e-07,0.08825985,1.1985663167792674e-15,9.7870367,8.999999999999999e-08,0.0,0.0,0.0,8.999999999999999e-08,0.0,0.0,0.0,8.999999999999999e-08
1728916746.3191314,192867,1728916746,301495616,base_link,-0.002691661969488003,0.00342069909438623,-0.706950135321768,-0.7072499981916448,1.0,0.0,0.0,0.0,1.0,0.0,0.0,0.0,1.0,-0.00040714163333177567,0.0009313620394095777,-0.001006231992505491,1.2184696791468346e-07,0.0,0.0,0.0,1.2184696791468346e-07,0.0,0.0,0.0,1.2184696791468346e-07,0.08825985,1.1985663167792674e-15,9.7870367,8.999999999999999e-08,0.0,0.0,0.0,8.999999999999999e-08,0.0,0.0,0.0,8.999999999999999e-08
1728916746.4202273,192868,1728916746,401672000,base_link,-0.0026968209062499787,0.003443133336398038,-0.706937028453116,-0.7072629707482961,1.0,0.0,0.0,0.0,1.0,0.0,0.0,0.0,1.0,-0.00048823002725839615,-0.0012948054354637861,0.0002873342018574478,1.2184696791468346e-07,0.0,0.0,0.0,1.2184696791468346e-07,0.0,0.0,0.0,1.2184696791468346e-07,0.0784532,1.1985663167792674e-15,9.7870367,8.999999999999999e-08,0.0,0.0,0.0,8.999999999999999e-08,0.0,0.0,0.0,8.999999999999999e-08
1728916746.5191627,192869,1728916746,501847872,base_link,-0.002671583203841125,0.003454134687702749,-0.7069224115786846,-0.7072776227228745,1.0,0.0,0.0,0.0,1.0,0.0,0.0,0.0,1.0,-0.0009114786516875029,-0.00025463628116995096,0.00017026811838150027,1.2184696791468346e-07,0.0,0.0,0.0,1.2184696791468346e-07,0.0,0.0,0.0,1.2184696791468346e-07,0.0784532,1.1985663167792674e-15,9.7870367,8.999999999999999e-08,0.0,0.0,0.0,8.999999999999999e-08,0.0,0.0,0.0,8.999999999999999e-08
1728916746.6201813,192870,1728916746,602025536,base_link,-0.0026655500093755663,0.0034962672557375513,-0.7069333310308669,-0.7072665243287191,1.0,0.0,0.0,0.0,1.0,0.0,0.0,0.0,1.0,-0.001154775032773614,-0.0006661170627921819,0.0005431127501651646,1.2184696791468346e-07,0.0,0.0,0.0,1.2184696791468346e-07,0.0,0.0,0.0,1.2184696791468346e-07,0.0784532,1.1985663167792674e-15,9.7870367,8.999999999999999e-08,0.0,0.0,0.0,8.999999999999999e-08,0.0,0.0,0.0,8.999999999999999e-08
1728916746.7190247,192871,1728916746,702200640,base_link,-0.002661801290018682,0.0035129410001299567,-0.7069289458597081,-0.7072708389048031,1.0,0.0,0.0,0.0,1.0,0.0,0.0,0.0,1.0,-0.00028080842457711697,-3.590050619095567e-05,-0.0003033288521692157,1.2184696791468346e-07,0.0,0.0,0.0,1.2184696791468346e-07,0.0,0.0,0.0,1.2184696791468346e-07,0.0784532,1.1985663167792674e-15,9.7870367,8.999999999999999e-08,0.0,0.0,0.0,8.999999999999999e-08,0.0,0.0,0.0,8.999999999999999e-08
1728916746.821358,192872,1728916746,802374976,base_link,-0.002670513522225675,0.0035107431905421925,-0.7069157634875199,-0.7072839927303842,1.0,0.0,0.0,0.0,1.0,0.0,0.0,0.0,1.0,-4.3133506551384926e-05,-0.0004673638613894582,-0.00013622094411402935,1.2184696791468346e-07,0.0,0.0,0.0,1.2184696791468346e-07,0.0,0.0,0.0,1.2184696791468346e-07,0.0784532,1.1985663167792674e-15,9.7870367,8.999999999999999e-08,0.0,0.0,0.0,8.999999999999999e-08,0.0,0.0,0.0,8.999999999999999e-08
1728916746.9243426,192873,1728916746,907724160,base_link,-0.0026647100802145423,0.003492143932521018,-0.7069113870639531,-0.7072884808126461,1.0,0.0,0.0,0.0,1.0,0.0,0.0,0.0,1.0,-0.0003079567104578018,0.00015645765233784906,-0.0007693103980273008,1.2184696791468346e-07,0.0,0.0,0.0,1.2184696791468346e-07,0.0,0.0,0.0,1.2184696791468346e-07,0.0784532,-0.009806649999998801,9.7870367,8.999999999999999e-08,0.0,0.0,0.0,8.999999999999999e-08,0.0,0.0,0.0,8.999999999999999e-08
1728916747.0201375,192874,1728916747,2724160,base_link,-0.002677274958432709,0.0034897332757047664,-0.7069144279207255,-0.7072854060122935,1.0,0.0,0.0,0.0,1.0,0.0,0.0,0.0,1.0,0.0006645019166171551,-0.0009691802551969886,0.00043403811287134897,1.2184696791468346e-07,0.0,0.0,0.0,1.2184696791468346e-07,0.0,0.0,0.0,1.2184696791468346e-07,0.0784532,-0.009806649999998801,9.7870367,8.999999999999999e-08,0.0,0.0,0.0,8.999999999999999e-08,0.0,0.0,0.0,8.999999999999999e-08
1728916747.1203427,192875,1728916747,102897984,base_link,-0.002674552221845642,0.003492605191130554,-0.7069296779655942,-0.707270159762769,1.0,0.0,0.0,0.0,1.0,0.0,0.0,0.0,1.0,-0.00017547095194458961,-0.0022459118627011776,0.0006427397020161155,1.2184696791468346e-07,0.0,0.0,0.0,1.2184696791468346e-07,0.0,0.0,0.0,1.2184696791468346e-07,0.0784532,-0.009806649999998801,9.7870367,8.999999999999999e-08,0.0,0.0,0.0,8.999999999999999e-08,0.0,0.0,0.0,8.999999999999999e-08
1728916747.220481,192876,1728916747,203070784,base_link,-0.00265912704134119,0.003495519338975009,-0.7069567240925949,-0.7072431693895639,1.0,0.0,0.0,0.0,1.0,0.0,0.0,0.0,1.0,9.40798781812191e-06,0.0004895091406069696,0.00011758517939597363,1.2184696791468346e-07,0.0,0.0,0.0,1.2184696791468346e-07,0.0,0.0,0.0,1.2184696791468346e-07,0.0784532,-0.009806649999998801,9.7870367,8.999999999999999e-08,0.0,0.0,0.0,8.999999999999999e-08,0.0,0.0,0.0,8.999999999999999e-08
1728916747.3201768,192877,1728916747,303243840,base_link,-0.002671961121906852,0.003488457384271315,-0.7069452984483753,-0.7072545767194288,1.0,0.0,0.0,0.0,1.0,0.0,0.0,0.0,1.0,-8.407537825405598e-05,-0.00030259811319410817,-0.0013930016430094838,1.2184696791468346e-07,0.0,0.0,0.0,1.2184696791468346e-07,0.0,0.0,0.0,1.2184696791468346e-07,0.0784532,-0.009806649999998801,9.7870367,8.999999999999999e-08,0.0,0.0,0.0,8.999999999999999e-08,0.0,0.0,0.0,8.999999999999999e-08
1728916747.4223466,192878,1728916747,403416384,base_link,-0.00271252803301205,0.003476545572738982,-0.7069385017667531,-0.7072612745954138,1.0,0.0,0.0,0.0,1.0,0.0,0.0,0.0,1.0,-6.093340925872326e-05,-0.0011537427781149745,-0.0006286383140832185,1.2184696791468346e-07,0.0,0.0,0.0,1.2184696791468346e-07,0.0,0.0,0.0,1.2184696791468346e-07,0.0784532,-0.009806649999998801,9.7870367,8.999999999999999e-08,0.0,0.0,0.0,8.999999999999999e-08,0.0,0.0,0.0,8.999999999999999e-08
1728916747.5225327,192879,1728916747,503772480,base_link,-0.0027432370316580485,0.0034470837379753845,-0.7069485854100775,-0.7072512211731996,1.0,0.0,0.0,0.0,1.0,0.0,0.0,0.0,1.0,0.0009917330462485552,0.00021965394262224428,-0.0006969197420403361,1.2184696791468346e-07,0.0,0.0,0.0,1.2184696791468346e-07,0.0,0.0,0.0,1.2184696791468346e-07,0.0784532,-0.009806649999998801,9.7870367,8.999999999999999e-08,0.0,0.0,0.0,8.999999999999999e-08,0.0,0.0,0.0,8.999999999999999e-08
1728916747.6213515,192880,1728916747,603951168,base_link,-0.0027427346310662025,0.0034279260856042125,-0.706960156760049,-0.7072397496488035,1.0,0.0,0.0,0.0,1.0,0.0,0.0,0.0,1.0,0.00021477066911756992,-0.001067719655111432,0.000126572558656335,1.2184696791468346e-07,0.0,0.0,0.0,1.2184696791468346e-07,0.0,0.0,0.0,1.2184696791468346e-07,0.0784532,-0.009806649999998801,9.7870367,8.999999999999999e-08,0.0,0.0,0.0,8.999999999999999e-08,0.0,0.0,0.0,8.999999999999999e-08
1728916747.7227166,192881,1728916747,704129344,base_link,-0.0027775612952441906,0.003439851431789667,-0.7069627427029638,-0.7072369708982142,1.0,0.0,0.0,0.0,1.0,0.0,0.0,0.0,1.0,0.0005135340616106987,-0.0005143539747223258,-7.311615627259009e-05,1.2184696791468346e-07,0.0,0.0,0.0,1.2184696791468346e-07,0.0,0.0,0.0,1.2184696791468346e-07,0.0784532,-0.009806649999998801,9.7870367,8.999999999999999e-08,0.0,0.0,0.0,8.999999999999999e-08,0.0,0.0,0.0,8.999999999999999e-08
1728916747.8212178,192882,1728916747,804307008,base_link,-0.0027621793148776426,0.003413690730188249,-0.7069604647732655,-0.707239434936005,1.0,0.0,0.0,0.0,1.0,0.0,0.0,0.0,1.0,0.0007554655894637108,0.00041656417306512594,0.00012753740884363646,1.2184696791468346e-07,0.0,0.0,0.0,1.2184696791468346e-07,0.0,0.0,0.0,1.2184696791468346e-07,0.0784532,-0.009806649999998801,9.7870367,8.999999999999999e-08,0.0,0.0,0.0,8.999999999999999e-08,0.0,0.0,0.0,8.999999999999999e-08
1728916747.9263918,192883,1728916747,909485440,base_link,-0.0027518688757093204,0.0034044912597940634,-0.7069506747677559,-0.7072493054803005,1.0,0.0,0.0,0.0,1.0,0.0,0.0,0.0,1.0,0.0003706349525600672,1.9256607629358846e-05,0.0006446457700803876,1.2184696791468346e-07,0.0,0.0,0.0,1.2184696791468346e-07,0.0,0.0,0.0,1.2184696791468346e-07,0.0784532,-0.009806649999998801,9.7870367,8.999999999999999e-08,0.0,0.0,0.0,8.999999999999999e-08,0.0,0.0,0.0,8.999999999999999e-08
1728916748.022142,192884,1728916748,4663616,base_link,-0.002749613090565983,0.0034016815991736557,-0.7069434368292243,-0.7072565625812421,1.0,0.0,0.0,0.0,1.0,0.0,0.0,0.0,1.0,0.0010708845220506191,-0.0012385818408802152,-0.000701393699273467,1.2184696791468346e-07,0.0,0.0,0.0,1.2184696791468346e-07,0.0,0.0,0.0,1.2184696791468346e-07,0.0784532,-0.009806649999998801,9.7870367,8.999999999999999e-08,0.0,0.0,0.0,8.999999999999999e-08,0.0,0.0,0.0,8.999999999999999e-08
1728916748.1226854,192885,1728916748,104841280,base_link,-0.0027597822784230625,0.003419276094314856,-0.706948348388665,-0.7072515287104759,1.0,0.0,0.0,0.0,1.0,0.0,0.0,0.0,1.0,-0.0005710604600608349,-0.0015440364368259907,-0.0006136829033493993,1.2184696791468346e-07,0.0,0.0,0.0,1.2184696791468346e-07,0.0,0.0,0.0,1.2184696791468346e-07,0.0784532,-0.009806649999998801,9.7870367,8.999999999999999e-08,0.0,0.0,0.0,8.999999999999999e-08,0.0,0.0,0.0,8.999999999999999e-08
1728916748.2225451,192886,1728916748,205018432,base_link,-0.0027558746124266096,0.0034292884491341994,-0.706945245832701,-0.7072545966838216,1.0,0.0,0.0,0.0,1.0,0.0,0.0,0.0,1.0,0.0002831253223121166,-0.0009106476791203022,1.4697783626616113e-05,1.2184696791468346e-07,0.0,0.0,0.0,1.2184696791468346e-07,0.0,0.0,0.0,1.2184696791468346e-07,0.0784532,-0.009806649999998801,9.7870367,8.999999999999999e-08,0.0,0.0,0.0,8.999999999999999e-08,0.0,0.0,0.0,8.999999999999999e-08
1728916748.323263,192887,1728916748,305196608,base_link,-0.0027285812679678882,0.003436090209763868,-0.7069389818557961,-0.7072609306762424,1.0,0.0,0.0,0.0,1.0,0.0,0.0,0.0,1.0,-0.00018931529484689236,-0.00043614138849079614,-0.0004926217952743173,1.2184696791468346e-07,0.0,0.0,0.0,1.2184696791468346e-07,0.0,0.0,0.0,1.2184696791468346e-07,0.0784532,-0.009806649999998801,9.7870367,8.999999999999999e-08,0.0,0.0,0.0,8.999999999999999e-08,0.0,0.0,0.0,8.999999999999999e-08
1728916748.422423,192888,1728916748,405372224,base_link,-0.0027238446790316204,0.003442938657515885,-0.7069473158230836,-0.7072525853569587,1.0,0.0,0.0,0.0,1.0,0.0,0.0,0.0,1.0,9.085237979888916e-05,0.0007500893552787602,0.00022285338491201393,1.2184696791468346e-07,0.0,0.0,0.0,1.2184696791468346e-07,0.0,0.0,0.0,1.2184696791468346e-07,0.0784532,1.1997672850325534e-15,9.79684335,8.999999999999999e-08,0.0,0.0,0.0,8.999999999999999e-08,0.0,0.0,0.0,8.999999999999999e-08
1728916748.5235384,192889,1728916748,505549376,base_link,-0.0027080411125421275,0.0034309698875814205,-0.7069419221737073,-0.7072580954872891,1.0,0.0,0.0,0.0,1.0,0.0,0.0,0.0,1.0,-5.757296457886696e-05,6.533274427056308e-05,-0.000311453128233552,1.2184696791468346e-07,0.0,0.0,0.0,1.2184696791468346e-07,0.0,0.0,0.0,1.2184696791468346e-07,0.0784532,1.1997672850325534e-15,9.79684335,8.999999999999999e-08,0.0,0.0,0.0,8.999999999999999e-08,0.0,0.0,0.0,8.999999999999999e-08
1728916748.6233613,192890,1728916748,605725504,base_link,-0.002737602567794297,0.0034451857087667635,-0.7069255174752674,-0.7072743095644987,1.0,0.0,0.0,0.0,1.0,0.0,0.0,0.0,1.0,0.0009573991410434246,-0.001636831322684884,-0.000684883678331971,1.2184696791468346e-07,0.0,0.0,0.0,1.2184696791468346e-07,0.0,0.0,0.0,1.2184696791468346e-07,0.0784532,1.1997672850325534e-15,9.79684335,8.999999999999999e-08,0.0,0.0,0.0,8.999999999999999e-08,0.0,0.0,0.0,8.999999999999999e-08
1728916748.7235813,192891,1728916748,705901632,base_link,-0.0027447554810403137,0.003437788354245545,-0.7069305128657908,-0.7072693248741179,1.0,0.0,0.0,0.0,1.0,0.0,0.0,0.0,1.0,-0.0007521118968725204,-0.0004934994503855704,0.0005024204729124905,1.2184696791468346e-07,0.0,0.0,0.0,1.2184696791468346e-07,0.0,0.0,0.0,1.2184696791468346e-07,0.0784532,1.1997672850325534e-15,9.79684335,8.999999999999999e-08,0.0,0.0,0.0,8.999999999999999e-08,0.0,0.0,0.0,8.999999999999999e-08
