Time,header.seq,header.stamp.secs,header.stamp.nsecs,header.frame_id,orientation.x,orientation.y,orientation.z,orientation.w,orientation_covariance_0,orientation_covariance_1,orientation_covariance_2,orientation_covariance_3,orientation_covariance_4,orientation_covariance_5,orientation_covariance_6,orientation_covariance_7,orientation_covariance_8,angular_velocity.x,angular_velocity.y,angular_velocity.z,angular_velocity_covariance_0,angular_velocity_covariance_1,angular_velocity_covariance_2,angular_velocity_covariance_3,angular_velocity_covariance_4,angular_velocity_covariance_5,angular_velocity_covariance_6,angular_velocity_covariance_7,angular_velocity_covariance_8,linear_acceleration.x,linear_acceleration.y,linear_acceleration.z,linear_acceleration_covariance_0,linear_acceleration_covariance_1,linear_acceleration_covariance_2,linear_acceleration_covariance_3,linear_acceleration_covariance_4,linear_acceleration_covariance_5,linear_acceleration_covariance_6,linear_acceleration_covariance_7,linear_acceleration_covariance_8
1728578976.4818575,34717,1728578976,465353088,base_link,0.001401547161045774,0.00027658473622520463,-0.7068810884743972,-0.7073309592571856,1.0,0.0,0.0,0.0,1.0,0.0,0.0,0.0,1.0,-0.00029390177223831415,0.0004936889163218438,-0.0008008233271539212,1.2184696791468346e-07,0.0,0.0,0.0,1.2184696791468346e-07,0.0,0.0,0.0,1.2184696791468346e-07,0.0,0.0,0.0,-1.0,0.0,0.0,0.0,8.999999999999999e-08,0.0,0.0,0.0,8.999999999999999e-08
1728578976.4961667,34718,1728578976,485523584,base_link,0.001386688218008428,0.00027471819001476837,-0.7068903106392312,-0.7073217728517011,1.0,0.0,0.0,0.0,1.0,0.0,0.0,0.0,1.0,0.0010688615730032325,-0.0005673056002706288,0.0011956511298194528,1.2184696791468346e-07,0.0,0.0,0.0,1.2184696791468346e-07,0.0,0.0,0.0,1.2184696791468346e-07,0.0,0.0,0.0,-1.0,0.0,0.0,0.0,8.999999999999999e-08,0.0,0.0,0.0,8.999999999999999e-08
1728578976.5159712,34719,1728578976,504523584,base_link,0.0013935546232846088,0.00027228406362944614,-0.706888964141456,-0.7073231059720301,1.0,0.0,0.0,0.0,1.0,0.0,0.0,0.0,1.0,0.00015226031246129423,3.2675859984010465e-05,4.882429493591189e-05,1.2184696791468346e-07,0.0,0.0,0.0,1.2184696791468346e-07,0.0,0.0,0.0,1.2184696791468346e-07,0.0,0.0,0.0,-1.0,0.0,0.0,0.0,8.999999999999999e-08,0.0,0.0,0.0,8.999999999999999e-08
1728578976.5360382,34720,1728578976,524523584,base_link,0.0013885452068870645,0.00027419576772895406,-0.7068901647458562,-0.7073219152157424,1.0,0.0,0.0,0.0,1.0,0.0,0.0,0.0,1.0,2.6870922738453373e-05,0.00013877342280466107,-0.00014914578059688213,1.2184696791468346e-07,0.0,0.0,0.0,1.2184696791468346e-07,0.0,0.0,0.0,1.2184696791468346e-07,0.0,0.0,0.0,-1.0,0.0,0.0,0.0,8.999999999999999e-08,0.0,0.0,0.0,8.999999999999999e-08
1728578976.5551693,34721,1728578976,544523584,base_link,0.0013915485948537238,0.0002698569096190455,-0.706892455905467,-0.7073196212135601,1.0,0.0,0.0,0.0,1.0,0.0,0.0,0.0,1.0,0.00027546341880224645,0.00010375826968811455,0.0002257759333588183,1.2184696791468346e-07,0.0,0.0,0.0,1.2184696791468346e-07,0.0,0.0,0.0,1.2184696791468346e-07,0.0,0.0,0.0,-1.0,0.0,0.0,0.0,8.999999999999999e-08,0.0,0.0,0.0,8.999999999999999e-08
1728578976.59555,34722,1728578976,565523584,base_link,0.001405415960621447,0.00026351292157993496,-0.7068914747014223,-0.7073205767976541,1.0,0.0,0.0,0.0,1.0,0.0,0.0,0.0,1.0,-0.0006470567313954234,0.0012255720794200897,0.000350135756889358,1.2184696791468346e-07,0.0,0.0,0.0,1.2184696791468346e-07,0.0,0.0,0.0,1.2184696791468346e-07,0.0,0.0,0.0,-1.0,0.0,0.0,0.0,8.999999999999999e-08,0.0,0.0,0.0,8.999999999999999e-08
1728578976.604762,34723,1728578976,585692800,base_link,0.0013987026583231128,0.00026772375046057626,-0.7068951505845449,-0.7073169148514128,1.0,0.0,0.0,0.0,1.0,0.0,0.0,0.0,1.0,-0.0002482295094523579,-0.00037700484972447157,-0.00016468163812533016,1.2184696791468346e-07,0.0,0.0,0.0,1.2184696791468346e-07,0.0,0.0,0.0,1.2184696791468346e-07,0.0,0.0,0.0,-1.0,0.0,0.0,0.0,8.999999999999999e-08,0.0,0.0,0.0,8.999999999999999e-08
1728578976.6157205,34724,1728578976,604692800,base_link,0.001410743393509226,0.0002546601659263947,-0.7068936408742461,-0.7073184045695616,1.0,0.0,0.0,0.0,1.0,0.0,0.0,0.0,1.0,-7.84542498877272e-05,0.0015174008440226316,0.00015356689982581865,1.2184696791468346e-07,0.0,0.0,0.0,1.2184696791468346e-07,0.0,0.0,0.0,1.2184696791468346e-07,0.0,0.0,0.0,-1.0,0.0,0.0,0.0,8.999999999999999e-08,0.0,0.0,0.0,8.999999999999999e-08
1728578976.6487813,34725,1728578976,624692800,base_link,0.0014179803249358886,0.0002444983815253447,-0.7068994390301264,-0.7073125989626031,1.0,0.0,0.0,0.0,1.0,0.0,0.0,0.0,1.0,4.2385858250781894e-05,0.0018063737079501152,0.0006609687115997074,1.2184696791468346e-07,0.0,0.0,0.0,1.2184696791468346e-07,0.0,0.0,0.0,1.2184696791468346e-07,0.0,0.0,0.0,-1.0,0.0,0.0,0.0,8.999999999999999e-08,0.0,0.0,0.0,8.999999999999999e-08
1728578976.6567686,34726,1728578976,644692800,base_link,0.0014198313316658398,0.00023367594964238892,-0.7069122239862474,-0.7072998211885522,1.0,0.0,0.0,0.0,1.0,0.0,0.0,0.0,1.0,0.0005395944463089108,0.0007178125088103118,0.0017737835878506303,1.2184696791468346e-07,0.0,0.0,0.0,1.2184696791468346e-07,0.0,0.0,0.0,1.2184696791468346e-07,0.0,0.0,0.0,-1.0,0.0,0.0,0.0,8.999999999999999e-08,0.0,0.0,0.0,8.999999999999999e-08
1728578976.676378,34727,1728578976,665692800,base_link,0.0014157357995234594,0.00023511802641468604,-0.706911592899831,-0.7073004596601669,1.0,0.0,0.0,0.0,1.0,0.0,0.0,0.0,1.0,-0.0001241673598997295,0.0003427763294894248,0.0001367110235150903,1.2184696791468346e-07,0.0,0.0,0.0,1.2184696791468346e-07,0.0,0.0,0.0,1.2184696791468346e-07,0.0,0.0,0.0,-1.0,0.0,0.0,0.0,8.999999999999999e-08,0.0,0.0,0.0,8.999999999999999e-08
1728578976.6971946,34728,1728578976,684861760,base_link,0.0014278685317206145,0.00023919220061828744,-0.7069098685768384,-0.7073021572759581,1.0,0.0,0.0,0.0,1.0,0.0,0.0,0.0,1.0,-0.0005837285425513983,0.0005122118745930493,-0.0003261748934164644,1.2184696791468346e-07,0.0,0.0,0.0,1.2184696791468346e-07,0.0,0.0,0.0,1.2184696791468346e-07,0.0,0.0,0.0,-1.0,0.0,0.0,0.0,8.999999999999999e-08,0.0,0.0,0.0,8.999999999999999e-08
1728578976.7205937,34729,1728578976,704861760,base_link,0.0014289931694992446,0.00023537922323452822,-0.7069012211747686,-0.7073107987842144,1.0,0.0,0.0,0.0,1.0,0.0,0.0,0.0,1.0,-0.00011849462316604331,0.0008242174517363309,-0.0011716019362211227,1.2184696791468346e-07,0.0,0.0,0.0,1.2184696791468346e-07,0.0,0.0,0.0,1.2184696791468346e-07,0.0,0.0,0.0,-1.0,0.0,0.0,0.0,8.999999999999999e-08,0.0,0.0,0.0,8.999999999999999e-08
1728578976.7359688,34730,1728578976,724861760,base_link,0.0014300569195413665,0.0002368679512991588,-0.7069019058230679,-0.7073101118848045,1.0,0.0,0.0,0.0,1.0,0.0,0.0,0.0,1.0,-0.00037530402187258005,8.568953489884761e-06,0.0002267452364321798,1.2184696791468346e-07,0.0,0.0,0.0,1.2184696791468346e-07,0.0,0.0,0.0,1.2184696791468346e-07,0.0,0.0,0.0,-1.0,0.0,0.0,0.0,8.999999999999999e-08,0.0,0.0,0.0,8.999999999999999e-08
1728578976.7561312,34731,1728578976,744861760,base_link,0.0014299639218469326,0.00022559873461351512,-0.706902447185892,-0.707309574706147,1.0,0.0,0.0,0.0,1.0,0.0,0.0,0.0,1.0,0.00027029277407564223,0.0005734811420552433,-0.0002560712164267898,1.2184696791468346e-07,0.0,0.0,0.0,1.2184696791468346e-07,0.0,0.0,0.0,1.2184696791468346e-07,0.0,0.0,0.0,-1.0,0.0,0.0,0.0,8.999999999999999e-08,0.0,0.0,0.0,8.999999999999999e-08
1728578976.7780247,34732,1728578976,765861760,base_link,0.001435827259003674,0.00022005471444711864,-0.7069047120977173,-0.7073073009591009,1.0,0.0,0.0,0.0,1.0,0.0,0.0,0.0,1.0,0.00040135293966159225,0.0005449074087664486,0.0008408529101870953,1.2184696791468346e-07,0.0,0.0,0.0,1.2184696791468346e-07,0.0,0.0,0.0,1.2184696791468346e-07,0.0,0.0,0.0,-1.0,0.0,0.0,0.0,8.999999999999999e-08,0.0,0.0,0.0,8.999999999999999e-08
1728578976.816175,34733,1728578976,785031744,base_link,0.0014375149955421491,0.00021596045179050172,-0.7069055536778885,-0.7073064576907796,1.0,0.0,0.0,0.0,1.0,0.0,0.0,0.0,1.0,0.0001250762288691476,0.00034117556060664356,0.0001387771917507052,1.2184696791468346e-07,0.0,0.0,0.0,1.2184696791468346e-07,0.0,0.0,0.0,1.2184696791468346e-07,0.0,0.0,0.0,-1.0,0.0,0.0,0.0,8.999999999999999e-08,0.0,0.0,0.0,8.999999999999999e-08
1728578976.8260272,34734,1728578976,805031744,base_link,0.0014432731029842235,0.00022472003415650705,-0.7069077829492477,-0.7073042152210289,1.0,0.0,0.0,0.0,1.0,0.0,0.0,0.0,1.0,-0.0012286852579563856,-2.675905125215641e-05,0.0006856254767626524,1.2184696791468346e-07,0.0,0.0,0.0,1.2184696791468346e-07,0.0,0.0,0.0,1.2184696791468346e-07,0.0,0.0,0.0,-1.0,0.0,0.0,0.0,8.999999999999999e-08,0.0,0.0,0.0,8.999999999999999e-08
1728578976.8371289,34735,1728578976,825031744,base_link,0.0014372690281212023,0.00021860510075173483,-0.706909051107061,-0.7073029619141046,1.0,0.0,0.0,0.0,1.0,0.0,0.0,0.0,1.0,0.00044977583456784487,9.00364830158647e-06,-0.0003176761092618108,1.2184696791468346e-07,0.0,0.0,0.0,1.2184696791468346e-07,0.0,0.0,0.0,1.2184696791468346e-07,0.0,0.0,0.0,-1.0,0.0,0.0,0.0,8.999999999999999e-08,0.0,0.0,0.0,8.999999999999999e-08
1728578976.8811805,34736,1728578976,846031744,base_link,0.001420913459499134,0.00022910076408723344,-0.7069099410254163,-0.7073021022146216,1.0,0.0,0.0,0.0,1.0,0.0,0.0,0.0,1.0,0.0007460554479621351,-0.00196502055041492,0.0005087419995106759,1.2184696791468346e-07,0.0,0.0,0.0,1.2184696791468346e-07,0.0,0.0,0.0,1.2184696791468346e-07,0.0,0.0,0.0,-1.0,0.0,0.0,0.0,8.999999999999999e-08,0.0,0.0,0.0,8.999999999999999e-08
1728578976.8923516,34737,1728578976,866031744,base_link,0.0014219118529951893,0.0002254357807229135,-0.7069086788901953,-0.707303362819031,1.0,0.0,0.0,0.0,1.0,0.0,0.0,0.0,1.0,0.00026685389457270503,-0.00020162219880148768,-0.00010274219675920901,1.2184696791468346e-07,0.0,0.0,0.0,1.2184696791468346e-07,0.0,0.0,0.0,1.2184696791468346e-07,0.0,0.0,0.0,-1.0,0.0,0.0,0.0,8.999999999999999e-08,0.0,0.0,0.0,8.999999999999999e-08
1728578976.9045217,34738,1728578976,885202752,base_link,0.0014203515483949018,0.00022006597361135796,-0.7069087733617768,-0.7073032732262692,1.0,0.0,0.0,0.0,1.0,0.0,0.0,0.0,1.0,-9.801074338611215e-05,0.00030594077543355525,4.056520992889963e-06,1.2184696791468346e-07,0.0,0.0,0.0,1.2184696791468346e-07,0.0,0.0,0.0,1.2184696791468346e-07,0.0,0.0,0.0,-1.0,0.0,0.0,0.0,8.999999999999999e-08,0.0,0.0,0.0,8.999999999999999e-08
1728578976.9174314,34739,1728578976,905202752,base_link,0.001417794525671982,0.00021920964377580574,-0.7069119197663435,-0.7073001339587588,1.0,0.0,0.0,0.0,1.0,0.0,0.0,0.0,1.0,0.0006497391732409596,-0.00016938641783781342,0.0006490991218015552,1.2184696791468346e-07,0.0,0.0,0.0,1.2184696791468346e-07,0.0,0.0,0.0,1.2184696791468346e-07,0.0,0.0,0.0,-1.0,0.0,0.0,0.0,8.999999999999999e-08,0.0,0.0,0.0,8.999999999999999e-08
1728578976.9358563,34740,1728578976,925202752,base_link,0.001420305832944112,0.0002139944872245076,-0.7069171143043056,-0.7072949387924204,1.0,0.0,0.0,0.0,1.0,0.0,0.0,0.0,1.0,-1.7764856238500215e-05,0.0008899368112906815,0.0006705331034027039,1.2184696791468346e-07,0.0,0.0,0.0,1.2184696791468346e-07,0.0,0.0,0.0,1.2184696791468346e-07,0.0,0.0,0.0,-1.0,0.0,0.0,0.0,8.999999999999999e-08,0.0,0.0,0.0,8.999999999999999e-08
1728578976.956457,34741,1728578976,945202752,base_link,0.0014171698611683498,0.00021227622878163338,-0.7069264978162908,-0.7072855669767207,1.0,0.0,0.0,0.0,1.0,0.0,0.0,0.0,1.0,0.0006247867713682353,-0.00026855428586713953,0.0015089309308677912,1.2184696791468346e-07,0.0,0.0,0.0,1.2184696791468346e-07,0.0,0.0,0.0,1.2184696791468346e-07,0.0,0.0,0.0,-1.0,0.0,0.0,0.0,8.999999999999999e-08,0.0,0.0,0.0,8.999999999999999e-08
1728578976.9774108,34742,1728578976,966202752,base_link,0.0014060259810261446,0.00021271847756415533,-0.7069378414113558,-0.7072742510670401,1.0,0.0,0.0,0.0,1.0,0.0,0.0,0.0,1.0,0.0007630615727975965,-0.0007529787253588436,0.0014447675785049796,1.2184696791468346e-07,0.0,0.0,0.0,1.2184696791468346e-07,0.0,0.0,0.0,1.2184696791468346e-07,0.0,0.0,0.0,-1.0,0.0,0.0,0.0,8.999999999999999e-08,0.0,0.0,0.0,8.999999999999999e-08
1728578976.996861,34743,1728578976,986374016,base_link,0.0013963734690082932,0.00021581900850054512,-0.7069410615065214,-0.7072710506724584,1.0,0.0,0.0,0.0,1.0,0.0,0.0,0.0,1.0,0.0005999270360916853,-0.0011455183848738668,0.000919856713153422,1.2184696791468346e-07,0.0,0.0,0.0,1.2184696791468346e-07,0.0,0.0,0.0,1.2184696791468346e-07,0.0,0.0,0.0,-1.0,0.0,0.0,0.0,8.999999999999999e-08,0.0,0.0,0.0,8.999999999999999e-08
1728578977.0414708,34744,1728578977,5374016,base_link,0.0013993698426789227,0.0002247595774298704,-0.7069434960300882,-0.7072686085695677,1.0,0.0,0.0,0.0,1.0,0.0,0.0,0.0,1.0,-0.0014385266695171595,-0.0005326822865754366,-2.3130443878471787e-05,1.2184696791468346e-07,0.0,0.0,0.0,1.2184696791468346e-07,0.0,0.0,0.0,1.2184696791468346e-07,0.0,0.0,0.0,-1.0,0.0,0.0,0.0,8.999999999999999e-08,0.0,0.0,0.0,8.999999999999999e-08
1728578977.048566,34745,1728578977,26374016,base_link,0.0013886844597957736,0.00022343323902920148,-0.7069462499129224,-0.7072658774231334,1.0,0.0,0.0,0.0,1.0,0.0,0.0,0.0,1.0,0.0007434246363118291,-0.0002821872476488352,8.95215780474246e-05,1.2184696791468346e-07,0.0,0.0,0.0,1.2184696791468346e-07,0.0,0.0,0.0,1.2184696791468346e-07,0.0,0.0,0.0,-1.0,0.0,0.0,0.0,8.999999999999999e-08,0.0,0.0,0.0,8.999999999999999e-08
1728578977.0576258,34746,1728578977,45374016,base_link,0.0013908070700633913,0.00022034186590826865,-0.7069393788509918,-0.7072727421122136,1.0,0.0,0.0,0.0,1.0,0.0,0.0,0.0,1.0,0.00023277026775758713,0.0002442342520225792,-0.0010217486415058374,1.2184696791468346e-07,0.0,0.0,0.0,1.2184696791468346e-07,0.0,0.0,0.0,1.2184696791468346e-07,0.0,0.0,0.0,-1.0,0.0,0.0,0.0,8.999999999999999e-08,0.0,0.0,0.0,8.999999999999999e-08
1728578977.0866864,34747,1728578977,66374016,base_link,0.0013907152871137727,0.00022939340631334505,-0.7069386169196036,-0.7072735009863254,1.0,0.0,0.0,0.0,1.0,0.0,0.0,0.0,1.0,-0.0007031696732155979,-0.0001762510219123215,-0.000544055481441319,1.2184696791468346e-07,0.0,0.0,0.0,1.2184696791468346e-07,0.0,0.0,0.0,1.2184696791468346e-07,0.0,0.0,0.0,-1.0,0.0,0.0,0.0,8.999999999999999e-08,0.0,0.0,0.0,8.999999999999999e-08
1728578977.0999825,34748,1728578977,85546048,base_link,0.0013863823293565817,0.00022829820006638825,-0.7069410916449863,-0.707271036285075,1.0,0.0,0.0,0.0,1.0,0.0,0.0,0.0,1.0,0.0002081190759781748,-0.00038104932173155243,0.00022928767430130398,1.2184696791468346e-07,0.0,0.0,0.0,1.2184696791468346e-07,0.0,0.0,0.0,1.2184696791468346e-07,0.0,0.0,0.0,-1.0,0.0,0.0,0.0,8.999999999999999e-08,0.0,0.0,0.0,8.999999999999999e-08
1728578977.1171982,34749,1728578977,105546048,base_link,0.0013723820250037364,0.00023219873044830235,-0.7069488886289996,-0.7072632688875827,1.0,0.0,0.0,0.0,1.0,0.0,0.0,0.0,1.0,0.0007693680236116052,-0.0012986767105758188,0.001115580787882209,1.2184696791468346e-07,0.0,0.0,0.0,1.2184696791468346e-07,0.0,0.0,0.0,1.2184696791468346e-07,0.0,0.0,0.0,-1.0,0.0,0.0,0.0,8.999999999999999e-08,0.0,0.0,0.0,8.999999999999999e-08
1728578977.1372983,34750,1728578977,125546048,base_link,0.0013755955256838529,0.00022813970505260018,-0.7069466747936058,-0.7072654768101496,1.0,0.0,0.0,0.0,1.0,0.0,0.0,0.0,1.0,0.0002180344599764794,0.00046016796841286123,0.00011929936590604479,1.2184696791468346e-07,0.0,0.0,0.0,1.2184696791468346e-07,0.0,0.0,0.0,1.2184696791468346e-07,0.0,0.0,0.0,-1.0,0.0,0.0,0.0,8.999999999999999e-08,0.0,0.0,0.0,8.999999999999999e-08
1728578977.156754,34751,1728578977,145546048,base_link,0.0013848571820537377,0.00022121154913636406,-0.7069398750095376,-0.7072722575907633,1.0,0.0,0.0,0.0,1.0,0.0,0.0,0.0,1.0,7.436716259690002e-05,0.0009301347890868782,-0.0011364733800292017,1.2184696791468346e-07,0.0,0.0,0.0,1.2184696791468346e-07,0.0,0.0,0.0,1.2184696791468346e-07,0.0,0.0,0.0,-1.0,0.0,0.0,0.0,8.999999999999999e-08,0.0,0.0,0.0,8.999999999999999e-08
1728578977.1776447,34752,1728578977,166546048,base_link,0.0013817031949164716,0.0002247206129482643,-0.7069369694329011,-0.7072751668523026,1.0,0.0,0.0,0.0,1.0,0.0,0.0,0.0,1.0,-0.00018635093874763697,0.00011246508802287275,-0.000473160354886204,1.2184696791468346e-07,0.0,0.0,0.0,1.2184696791468346e-07,0.0,0.0,0.0,1.2184696791468346e-07,0.0,0.0,0.0,-1.0,0.0,0.0,0.0,8.999999999999999e-08,0.0,0.0,0.0,8.999999999999999e-08
1728578977.196917,34753,1728578977,186716800,base_link,0.0013859987562385623,0.00020855157242896026,-0.7069376039909466,-0.7072745291449627,1.0,0.0,0.0,0.0,1.0,0.0,0.0,0.0,1.0,0.0005138052511028945,0.000764561234973371,-0.00036561588058248173,1.2184696791468346e-07,0.0,0.0,0.0,1.2184696791468346e-07,0.0,0.0,0.0,1.2184696791468346e-07,0.0,0.0,0.0,-1.0,0.0,0.0,0.0,8.999999999999999e-08,0.0,0.0,0.0,8.999999999999999e-08
1728578977.217642,34754,1728578977,205716800,base_link,0.001385428625416314,0.00019563988725196808,-0.7069377406622865,-0.70727439734509,1.0,0.0,0.0,0.0,1.0,0.0,0.0,0.0,1.0,0.0007531362934969366,0.0012856656685471535,3.380936686880871e-05,1.2184696791468346e-07,0.0,0.0,0.0,1.2184696791468346e-07,0.0,0.0,0.0,1.2184696791468346e-07,0.0,0.0,0.0,-1.0,0.0,0.0,0.0,8.999999999999999e-08,0.0,0.0,0.0,8.999999999999999e-08
1728578977.2413208,34755,1728578977,225716800,base_link,0.0013856204372615821,0.00020912840423753637,-0.7069435813223045,-0.7072685551814875,1.0,0.0,0.0,0.0,1.0,0.0,0.0,0.0,1.0,-0.0008493897039443254,-0.0007123117102310061,0.0003858895506709815,1.2184696791468346e-07,0.0,0.0,0.0,1.2184696791468346e-07,0.0,0.0,0.0,1.2184696791468346e-07,0.0,0.0,0.0,-1.0,0.0,0.0,0.0,8.999999999999999e-08,0.0,0.0,0.0,8.999999999999999e-08
1728578977.2572021,34756,1728578977,245716800,base_link,0.001398451102158171,0.00020257421028373353,-0.7069465642409313,-0.7072655502752465,1.0,0.0,0.0,0.0,1.0,0.0,0.0,0.0,1.0,-0.00039070271304808557,0.0006503177573904396,0.0009442764567211269,1.2184696791468346e-07,0.0,0.0,0.0,1.2184696791468346e-07,0.0,0.0,0.0,1.2184696791468346e-07,0.0,0.0,0.0,-1.0,0.0,0.0,0.0,8.999999999999999e-08,0.0,0.0,0.0,8.999999999999999e-08
1728578977.27763,34757,1728578977,266716800,base_link,0.0013911501564226368,0.00020044506631272234,-0.7069483671813133,-0.7072637631482986,1.0,0.0,0.0,0.0,1.0,0.0,0.0,0.0,1.0,0.00012599435285665095,0.0001846399100031704,0.0001774973206920549,1.2184696791468346e-07,0.0,0.0,0.0,1.2184696791468346e-07,0.0,0.0,0.0,1.2184696791468346e-07,0.0,0.0,0.0,-1.0,0.0,0.0,0.0,8.999999999999999e-08,0.0,0.0,0.0,8.999999999999999e-08
1728578977.3206265,34758,1728578977,286888064,base_link,0.00139286361248627,0.0002031563679330164,-0.706941576278003,-0.7072705468121936,1.0,0.0,0.0,0.0,1.0,0.0,0.0,0.0,1.0,0.00018392829224467278,-0.00024103961186483508,-0.0005300393095239997,1.2184696791468346e-07,0.0,0.0,0.0,1.2184696791468346e-07,0.0,0.0,0.0,1.2184696791468346e-07,0.0,0.0,0.0,-1.0,0.0,0.0,0.0,8.999999999999999e-08,0.0,0.0,0.0,8.999999999999999e-08
1728578977.3285956,34759,1728578977,305888064,base_link,0.0013978821851767889,0.00020397887943274405,-0.7069451626410262,-0.7072669519611858,1.0,0.0,0.0,0.0,1.0,0.0,0.0,0.0,1.0,-0.0003405613242648542,0.0003865225880872459,0.0003899009607266634,1.2184696791468346e-07,0.0,0.0,0.0,1.2184696791468346e-07,0.0,0.0,0.0,1.2184696791468346e-07,0.0,0.0,0.0,-1.0,0.0,0.0,0.0,8.999999999999999e-08,0.0,0.0,0.0,8.999999999999999e-08
1728578977.3371534,34760,1728578977,325888064,base_link,0.0013981992192657101,0.00019194142050886525,-0.7069485723828058,-0.7072635464968817,1.0,0.0,0.0,0.0,1.0,0.0,0.0,0.0,1.0,0.000336592027451843,0.0010049446718767285,0.0005390626029111444,1.2184696791468346e-07,0.0,0.0,0.0,1.2184696791468346e-07,0.0,0.0,0.0,1.2184696791468346e-07,0.0,0.0,0.0,-1.0,0.0,0.0,0.0,8.999999999999999e-08,0.0,0.0,0.0,8.999999999999999e-08
1728578977.3572266,34761,1728578977,345888064,base_link,0.0014055086122727102,0.00019799006494046587,-0.7069573032244845,-0.7072548032802882,1.0,0.0,0.0,0.0,1.0,0.0,0.0,0.0,1.0,-0.0012235435424372554,0.0004857716558035464,0.0007802554173395037,1.2184696791468346e-07,0.0,0.0,0.0,1.2184696791468346e-07,0.0,0.0,0.0,1.2184696791468346e-07,0.0,0.0,0.0,-1.0,0.0,0.0,0.0,8.999999999999999e-08,0.0,0.0,0.0,8.999999999999999e-08
1728578977.3767505,34762,1728578977,366888064,base_link,0.0014211280882233015,0.0001821016684108097,-0.7069564809216672,-0.7072555982930016,1.0,0.0,0.0,0.0,1.0,0.0,0.0,0.0,1.0,1.2099659215891734e-05,0.0014779317425563931,2.740413765422982e-05,1.2184696791468346e-07,0.0,0.0,0.0,1.2184696791468346e-07,0.0,0.0,0.0,1.2184696791468346e-07,0.0,0.0,0.0,-1.0,0.0,0.0,0.0,8.999999999999999e-08,0.0,0.0,0.0,8.999999999999999e-08
1728578977.3966813,34763,1728578977,387058560,base_link,0.0014262245953136914,0.00017948075903010828,-0.7069541279400158,-0.7072579406826286,1.0,0.0,0.0,0.0,1.0,0.0,0.0,0.0,1.0,0.00013837142614647746,0.0008561923750676215,-0.00016568280989304196,1.2184696791468346e-07,0.0,0.0,0.0,1.2184696791468346e-07,0.0,0.0,0.0,1.2184696791468346e-07,0.0,0.0,0.0,-1.0,0.0,0.0,0.0,8.999999999999999e-08,0.0,0.0,0.0,8.999999999999999e-08
1728578977.4168196,34764,1728578977,406058560,base_link,0.0014291770085635594,0.00017417454317154532,-0.7069594992976541,-0.7072525669583087,1.0,0.0,0.0,0.0,1.0,0.0,0.0,0.0,1.0,-0.0001350626116618514,0.00021310683223418897,0.0003982014022767544,1.2184696791468346e-07,0.0,0.0,0.0,1.2184696791468346e-07,0.0,0.0,0.0,1.2184696791468346e-07,0.0,0.0,0.0,-1.0,0.0,0.0,0.0,8.999999999999999e-08,0.0,0.0,0.0,8.999999999999999e-08
1728578977.4410322,34765,1728578977,426058560,base_link,0.001426294756842318,0.00017968018934970322,-0.7069658376378474,-0.7072462356289447,1.0,0.0,0.0,0.0,1.0,0.0,0.0,0.0,1.0,-0.00010250892955809832,-0.00035870968713425084,0.0011158570414409041,1.2184696791468346e-07,0.0,0.0,0.0,1.2184696791468346e-07,0.0,0.0,0.0,1.2184696791468346e-07,0.0,0.0,0.0,-1.0,0.0,0.0,0.0,8.999999999999999e-08,0.0,0.0,0.0,8.999999999999999e-08
1728578977.4737995,34766,1728578977,446058560,base_link,0.0014300700542171473,0.0001705319915567709,-0.7069670129246326,-0.7072450554474755,1.0,0.0,0.0,0.0,1.0,0.0,0.0,0.0,1.0,-3.414053571759723e-05,0.0005096212844364345,0.00023171189241111273,1.2184696791468346e-07,0.0,0.0,0.0,1.2184696791468346e-07,0.0,0.0,0.0,1.2184696791468346e-07,0.0,0.0,0.0,-1.0,0.0,0.0,0.0,8.999999999999999e-08,0.0,0.0,0.0,8.999999999999999e-08
1728578977.4821339,34767,1728578977,467058560,base_link,0.0014290708871994358,0.0001710200840843411,-0.7069653404422236,-0.7072467291701962,1.0,0.0,0.0,0.0,1.0,0.0,0.0,0.0,1.0,-2.8835558623541147e-05,0.00017563565052114422,-0.0004959835787303746,1.2184696791468346e-07,0.0,0.0,0.0,1.2184696791468346e-07,0.0,0.0,0.0,1.2184696791468346e-07,0.0,0.0,0.0,-1.0,0.0,0.0,0.0,8.999999999999999e-08,0.0,0.0,0.0,8.999999999999999e-08
1728578977.4969983,34768,1728578977,486228032,base_link,0.001426253174614247,0.0001698900480075152,-0.7069745446517025,-0.7072375344633308,1.0,0.0,0.0,0.0,1.0,0.0,0.0,0.0,1.0,0.000531549274455756,0.00022197603539098062,0.000643333129119128,1.2184696791468346e-07,0.0,0.0,0.0,1.2184696791468346e-07,0.0,0.0,0.0,1.2184696791468346e-07,0.0,0.0,0.0,-1.0,0.0,0.0,0.0,8.999999999999999e-08,0.0,0.0,0.0,8.999999999999999e-08
1728578977.5417979,34769,1728578977,506228032,base_link,0.0014482756036247899,0.0001601282088040728,-0.706977729713331,-0.707234308094649,1.0,0.0,0.0,0.0,1.0,0.0,0.0,0.0,1.0,-0.0012305008713155985,0.0016919027548283339,0.0008748971740715204,1.2184696791468346e-07,0.0,0.0,0.0,1.2184696791468346e-07,0.0,0.0,0.0,1.2184696791468346e-07,0.0,0.0,0.0,-1.0,0.0,0.0,0.0,8.999999999999999e-08,0.0,0.0,0.0,8.999999999999999e-08
1728578977.5497675,34770,1728578977,526228032,base_link,0.0014397899215029108,0.000164464596939629,-0.7069798169520339,-0.7072322379380391,1.0,0.0,0.0,0.0,1.0,0.0,0.0,0.0,1.0,0.00010520498472033069,2.182845491915969e-06,0.00022994831670075655,1.2184696791468346e-07,0.0,0.0,0.0,1.2184696791468346e-07,0.0,0.0,0.0,1.2184696791468346e-07,0.0,0.0,0.0,-1.0,0.0,0.0,0.0,8.999999999999999e-08,0.0,0.0,0.0,8.999999999999999e-08
1728578977.5572064,34771,1728578977,546228032,base_link,0.0014473939552770297,0.0001717377538244512,-0.7069831500497857,-0.7072288887641429,1.0,0.0,0.0,0.0,1.0,0.0,0.0,0.0,1.0,-0.0005084119038656354,-0.0006040653097443283,0.00036785990232601767,1.2184696791468346e-07,0.0,0.0,0.0,1.2184696791468346e-07,0.0,0.0,0.0,1.2184696791468346e-07,0.0,0.0,0.0,-1.0,0.0,0.0,0.0,8.999999999999999e-08,0.0,0.0,0.0,8.999999999999999e-08
1728578977.5782728,34772,1728578977,567228032,base_link,0.0014447122223052852,0.00017588972060525077,-0.7069892906929147,-0.7072227546642785,1.0,0.0,0.0,0.0,1.0,0.0,0.0,0.0,1.0,0.00013518455671146512,-0.0003931487444788216,0.0011738312896341085,1.2184696791468346e-07,0.0,0.0,0.0,1.2184696791468346e-07,0.0,0.0,0.0,1.2184696791468346e-07,0.0,0.0,0.0,-1.0,0.0,0.0,0.0,8.999999999999999e-08,0.0,0.0,0.0,8.999999999999999e-08
1728578977.5981967,34773,1728578977,587397248,base_link,0.0014486464419067775,0.00017425820714589793,-0.7069878567776615,-0.7072241804594158,1.0,0.0,0.0,0.0,1.0,0.0,0.0,0.0,1.0,-0.0003852294757962227,0.0003575696609914303,-0.00012708251597359782,1.2184696791468346e-07,0.0,0.0,0.0,1.2184696791468346e-07,0.0,0.0,0.0,1.2184696791468346e-07,0.0,0.0,0.0,-1.0,0.0,0.0,0.0,8.999999999999999e-08,0.0,0.0,0.0,8.999999999999999e-08
1728578977.617209,34774,1728578977,606397248,base_link,0.0014592677340485069,0.00017196080899215015,-0.7069795947676588,-0.7072324183387788,1.0,0.0,0.0,0.0,1.0,0.0,0.0,0.0,1.0,-0.0010190558386966586,0.0012150623369961975,-0.0014942889101803305,1.2184696791468346e-07,0.0,0.0,0.0,1.2184696791468346e-07,0.0,0.0,0.0,1.2184696791468346e-07,0.0,0.0,0.0,-1.0,0.0,0.0,0.0,8.999999999999999e-08,0.0,0.0,0.0,8.999999999999999e-08
1728578977.6367269,34775,1728578977,626397248,base_link,0.0014546899746815931,0.00017019661396285292,-0.706979217183394,-0.7072328056453162,1.0,0.0,0.0,0.0,1.0,0.0,0.0,0.0,1.0,0.00010174450289923698,0.00018927837663795796,-0.000284217152511701,1.2184696791468346e-07,0.0,0.0,0.0,1.2184696791468346e-07,0.0,0.0,0.0,1.2184696791468346e-07,0.0,0.0,0.0,-1.0,0.0,0.0,0.0,8.999999999999999e-08,0.0,0.0,0.0,8.999999999999999e-08
1728578977.658958,34776,1728578977,646397248,base_link,0.0014545154459778154,0.00017702767531682813,-0.7069763081934816,-0.7072357122622803,1.0,0.0,0.0,0.0,1.0,0.0,0.0,0.0,1.0,-0.0003566744562704116,-3.414577804505827e-05,-0.00014926036237739027,1.2184696791468346e-07,0.0,0.0,0.0,1.2184696791468346e-07,0.0,0.0,0.0,1.2184696791468346e-07,0.0,0.0,0.0,-1.0,0.0,0.0,0.0,8.999999999999999e-08,0.0,0.0,0.0,8.999999999999999e-08
1728578977.7053154,34777,1728578977,667397248,base_link,0.0014617448902262003,0.00018285022274101658,-0.7069755308248789,-0.7072364729583399,1.0,0.0,0.0,0.0,1.0,0.0,0.0,0.0,1.0,-0.0013086822582408786,6.258452776819462e-05,-0.0003932702820748091,1.2184696791468346e-07,0.0,0.0,0.0,1.2184696791468346e-07,0.0,0.0,0.0,1.2184696791468346e-07,0.0,0.0,0.0,-1.0,0.0,0.0,0.0,8.999999999999999e-08,0.0,0.0,0.0,8.999999999999999e-08
1728578977.717899,34778,1728578977,687566464,base_link,0.0014621032169133187,0.0001800829679575062,-0.7069809545051966,-0.7072310512069085,1.0,0.0,0.0,0.0,1.0,0.0,0.0,0.0,1.0,5.1679213356692344e-05,0.0005211959360167385,0.0010718402918428183,1.2184696791468346e-07,0.0,0.0,0.0,1.2184696791468346e-07,0.0,0.0,0.0,1.2184696791468346e-07,0.0,0.0,0.0,-1.0,0.0,0.0,0.0,8.999999999999999e-08,0.0,0.0,0.0,8.999999999999999e-08
1728578977.7265382,34779,1728578977,706566464,base_link,0.0014672338840267265,0.00018719887547729945,-0.70698091885865,-0.7072310743675573,1.0,0.0,0.0,0.0,1.0,0.0,0.0,0.0,1.0,-0.0006947638466954231,-0.00038349986425600946,2.634208067320292e-05,1.2184696791468346e-07,0.0,0.0,0.0,1.2184696791468346e-07,0.0,0.0,0.0,1.2184696791468346e-07,0.0,0.0,0.0,-1.0,0.0,0.0,0.0,8.999999999999999e-08,0.0,0.0,0.0,8.999999999999999e-08
1728578977.7691681,34780,1728578977,726566464,base_link,0.0014610557161548036,0.00018311813088975638,-0.7069821054016571,-0.7072299021009962,1.0,0.0,0.0,0.0,1.0,0.0,0.0,0.0,1.0,0.0007703537703491747,0.00022716238163411625,0.0005587772466242313,1.2184696791468346e-07,0.0,0.0,0.0,1.2184696791468346e-07,0.0,0.0,0.0,1.2184696791468346e-07,0.0,0.0,0.0,-1.0,0.0,0.0,0.0,8.999999999999999e-08,0.0,0.0,0.0,8.999999999999999e-08
1728578977.7784288,34781,1728578977,746566464,base_link,0.0014555649507331527,0.00017695564573718355,-0.70698236132692,-0.7072296591560523,1.0,0.0,0.0,0.0,1.0,0.0,0.0,0.0,1.0,0.0004439254989847541,-9.246039553545415e-05,-4.013147554360329e-05,1.2184696791468346e-07,0.0,0.0,0.0,1.2184696791468346e-07,0.0,0.0,0.0,1.2184696791468346e-07,0.0,0.0,0.0,-1.0,0.0,0.0,0.0,8.999999999999999e-08,0.0,0.0,0.0,8.999999999999999e-08
1728578977.7865574,34782,1728578977,767566464,base_link,0.0014455939088610173,0.00017469595378826077,-0.7069755938827894,-0.7072364451819855,1.0,0.0,0.0,0.0,1.0,0.0,0.0,0.0,1.0,0.0011024863924831152,-0.00010825201752595614,-0.0008787999395281076,1.2184696791468346e-07,0.0,0.0,0.0,1.2184696791468346e-07,0.0,0.0,0.0,1.2184696791468346e-07,0.0,0.0,0.0,-1.0,0.0,0.0,0.0,8.999999999999999e-08,0.0,0.0,0.0,8.999999999999999e-08
1728578977.8041344,34783,1728578977,787735424,base_link,0.0014528091867923238,0.00017246515175097952,-0.7069754529543454,-0.707236571821082,1.0,0.0,0.0,0.0,1.0,0.0,0.0,0.0,1.0,-0.0002571163640823215,0.000595801742747426,1.3755052350460752e-06,1.2184696791468346e-07,0.0,0.0,0.0,1.2184696791468346e-07,0.0,0.0,0.0,1.2184696791468346e-07,0.0,0.0,0.0,-1.0,0.0,0.0,0.0,8.999999999999999e-08,0.0,0.0,0.0,8.999999999999999e-08
1728578977.8181033,34784,1728578977,807735424,base_link,0.0014382823158982,0.00017217975338939607,-0.7069782141714158,-0.7072338413743421,1.0,0.0,0.0,0.0,1.0,0.0,0.0,0.0,1.0,0.0005161921144463122,-0.0008103628642857075,0.0002886647707782687,1.2184696791468346e-07,0.0,0.0,0.0,1.2184696791468346e-07,0.0,0.0,0.0,1.2184696791468346e-07,0.0,0.0,0.0,-1.0,0.0,0.0,0.0,8.999999999999999e-08,0.0,0.0,0.0,8.999999999999999e-08
1728578977.838126,34785,1728578977,826735424,base_link,0.0014450359927916485,0.00016605942432453547,-0.7069721376964989,-0.7072399032973817,1.0,0.0,0.0,0.0,1.0,0.0,0.0,0.0,1.0,0.00042142628808505833,0.0008947614114731549,-0.0007082463707774879,1.2184696791468346e-07,0.0,0.0,0.0,1.2184696791468346e-07,0.0,0.0,0.0,1.2184696791468346e-07,0.0,0.0,0.0,-1.0,0.0,0.0,0.0,8.999999999999999e-08,0.0,0.0,0.0,8.999999999999999e-08
1728578977.876536,34786,1728578977,846735424,base_link,0.0014609032968843525,0.0001723229117884943,-0.7069701258173492,-0.7072418803126499,1.0,0.0,0.0,0.0,1.0,0.0,0.0,0.0,1.0,-0.0014969116309657693,0.0013149430742487311,-0.0003115577565040441,1.2184696791468346e-07,0.0,0.0,0.0,1.2184696791468346e-07,0.0,0.0,0.0,1.2184696791468346e-07,0.0,0.0,0.0,-1.0,0.0,0.0,0.0,8.999999999999999e-08,0.0,0.0,0.0,8.999999999999999e-08
1728578977.8843486,34787,1728578977,867735424,base_link,0.0014580264990061839,0.0001738768211907703,-0.7069751623852052,-0.7072368512004953,1.0,0.0,0.0,0.0,1.0,0.0,0.0,0.0,1.0,-0.00028103304794058204,-0.0002065384760499,0.0005186744383536279,1.2184696791468346e-07,0.0,0.0,0.0,1.2184696791468346e-07,0.0,0.0,0.0,1.2184696791468346e-07,0.0,0.0,0.0,-1.0,0.0,0.0,0.0,8.999999999999999e-08,0.0,0.0,0.0,8.999999999999999e-08
1728578977.9264784,34788,1728578977,887904896,base_link,0.0014602775150208416,0.0001785455970059751,-0.7069755354869752,-0.7072364724290974,1.0,0.0,0.0,0.0,1.0,0.0,0.0,0.0,1.0,-0.0005580263095907867,-0.00047841173363849515,0.00032174229272641247,1.2184696791468346e-07,0.0,0.0,0.0,1.2184696791468346e-07,0.0,0.0,0.0,1.2184696791468346e-07,0.0,0.0,0.0,-1.0,0.0,0.0,0.0,8.999999999999999e-08,0.0,0.0,0.0,8.999999999999999e-08
1728578977.9373753,34789,1728578977,907904896,base_link,0.0014673621379900526,0.00018072370630162297,-0.7069693313583996,-0.7072426589975717,1.0,0.0,0.0,0.0,1.0,0.0,0.0,0.0,1.0,-0.0006466511404141784,0.0008207728387787937,-0.0008241628529503943,1.2184696791468346e-07,0.0,0.0,0.0,1.2184696791468346e-07,0.0,0.0,0.0,1.2184696791468346e-07,0.0,0.0,0.0,-1.0,0.0,0.0,0.0,8.999999999999999e-08,0.0,0.0,0.0,8.999999999999999e-08
1728578977.945837,34790,1728578977,926904896,base_link,0.0014725147472646888,0.00019241793713666277,-0.7069649674400619,-0.7072470074083939,1.0,0.0,0.0,0.0,1.0,0.0,0.0,0.0,1.0,-0.0009653095621615648,-0.00011105558951385327,-0.0006110439426265657,1.2184696791468346e-07,0.0,0.0,0.0,1.2184696791468346e-07,0.0,0.0,0.0,1.2184696791468346e-07,0.0,0.0,0.0,-1.0,0.0,0.0,0.0,8.999999999999999e-08,0.0,0.0,0.0,8.999999999999999e-08
1728578977.9873724,34791,1728578977,946904896,base_link,0.0014612182740535347,0.00019934053098042312,-0.706962262933795,-0.7072497323379033,1.0,0.0,0.0,0.0,1.0,0.0,0.0,0.0,1.0,-0.0002221752074547112,-0.001058217603713274,-0.0006830006022937595,1.2184696791468346e-07,0.0,0.0,0.0,1.2184696791468346e-07,0.0,0.0,0.0,1.2184696791468346e-07,0.0,0.0,0.0,-1.0,0.0,0.0,0.0,8.999999999999999e-08,0.0,0.0,0.0,8.999999999999999e-08
1728578977.9873755,34792,1728578977,967904896,base_link,0.001473172400117694,0.00020006234336986302,-0.7069549216677851,-0.7072570455413182,1.0,0.0,0.0,0.0,1.0,0.0,0.0,0.0,1.0,-0.0006900722510181367,0.0002898468810599296,-0.0006754861678928137,1.2184696791468346e-07,0.0,0.0,0.0,1.2184696791468346e-07,0.0,0.0,0.0,1.2184696791468346e-07,0.0,0.0,0.0,-1.0,0.0,0.0,0.0,8.999999999999999e-08,0.0,0.0,0.0,8.999999999999999e-08
1728578977.9980085,34793,1728578977,988073600,base_link,0.001451219830308566,0.00018769735678573937,-0.7069599343151498,-0.7072520837748203,1.0,0.0,0.0,0.0,1.0,0.0,0.0,0.0,1.0,0.0018185776425525546,-0.0002592868404462933,0.0003084763884544373,1.2184696791468346e-07,0.0,0.0,0.0,1.2184696791468346e-07,0.0,0.0,0.0,1.2184696791468346e-07,0.0,0.0,0.0,-1.0,0.0,0.0,0.0,8.999999999999999e-08,0.0,0.0,0.0,8.999999999999999e-08
1728578978.0180001,34794,1728578978,7073600,base_link,0.0014568354715353538,0.00017017722895523482,-0.7069629605602349,-0.7072490516543852,1.0,0.0,0.0,0.0,1.0,0.0,0.0,0.0,1.0,0.0010438350727781653,0.0010259631089866161,0.00030565555789507915,1.2184696791468346e-07,0.0,0.0,0.0,1.2184696791468346e-07,0.0,0.0,0.0,1.2184696791468346e-07,0.0,0.0,0.0,-1.0,0.0,0.0,0.0,8.999999999999999e-08,0.0,0.0,0.0,8.999999999999999e-08
1728578978.0384724,34795,1728578978,28073600,base_link,0.0014588813654327517,0.00016481552668452034,-0.7069619674665575,-0.707250041397537,1.0,0.0,0.0,0.0,1.0,0.0,0.0,0.0,1.0,-7.658152026124299e-05,0.0005255553405731916,-0.0002133267698809505,1.2184696791468346e-07,0.0,0.0,0.0,1.2184696791468346e-07,0.0,0.0,0.0,1.2184696791468346e-07,0.0,0.0,0.0,-1.0,0.0,0.0,0.0,8.999999999999999e-08,0.0,0.0,0.0,8.999999999999999e-08
1728578978.0580728,34796,1728578978,47073600,base_link,0.0014585439368148116,0.00016242030667240463,-0.7069638051243677,-0.7072482057335341,1.0,0.0,0.0,0.0,1.0,0.0,0.0,0.0,1.0,0.00028262753039598465,0.00048257422167807823,0.00029493664624169463,1.2184696791468346e-07,0.0,0.0,0.0,1.2184696791468346e-07,0.0,0.0,0.0,1.2184696791468346e-07,0.0,0.0,0.0,-1.0,0.0,0.0,0.0,8.999999999999999e-08,0.0,0.0,0.0,8.999999999999999e-08
1728578978.0983245,34797,1728578978,68073600,base_link,0.0014613810980894403,0.00016448204621181058,-0.7069620908930683,-0.7072499129381661,1.0,0.0,0.0,0.0,1.0,0.0,0.0,0.0,1.0,-0.0006978694582358003,0.0003119523171335459,-8.934616926126186e-05,1.2184696791468346e-07,0.0,0.0,0.0,1.2184696791468346e-07,0.0,0.0,0.0,1.2184696791468346e-07,0.0,0.0,0.0,-1.0,0.0,0.0,0.0,8.999999999999999e-08,0.0,0.0,0.0,8.999999999999999e-08
1728578978.1071603,34798,1728578978,88241024,base_link,0.0014735099713954229,0.0001597690978219131,-0.7069615086176206,-0.7072504708908277,1.0,0.0,0.0,0.0,1.0,0.0,0.0,0.0,1.0,-2.55018167081289e-05,0.0007141028763726354,-0.00019876626902259894,1.2184696791468346e-07,0.0,0.0,0.0,1.2184696791468346e-07,0.0,0.0,0.0,1.2184696791468346e-07,0.0,0.0,0.0,-1.0,0.0,0.0,0.0,8.999999999999999e-08,0.0,0.0,0.0,8.999999999999999e-08
1728578978.118255,34799,1728578978,107241024,base_link,0.0014722585307713908,0.00017018301903006265,-0.7069685141187588,-0.707243468359569,1.0,0.0,0.0,0.0,1.0,0.0,0.0,0.0,1.0,-0.0010728706838563085,-0.0001875267480500041,0.0011220063315704465,1.2184696791468346e-07,0.0,0.0,0.0,1.2184696791468346e-07,0.0,0.0,0.0,1.2184696791468346e-07,0.0,0.0,0.0,-1.0,0.0,0.0,0.0,8.999999999999999e-08,0.0,0.0,0.0,8.999999999999999e-08
1728578978.1377785,34800,1728578978,127241024,base_link,0.001479809992326981,0.00016973202898822422,-0.7069601461217415,-0.7072518173528795,1.0,0.0,0.0,0.0,1.0,0.0,0.0,0.0,1.0,-0.0005402236129157245,0.00036450312472879876,-0.0007503119995817542,1.2184696791468346e-07,0.0,0.0,0.0,1.2184696791468346e-07,0.0,0.0,0.0,1.2184696791468346e-07,0.0,0.0,0.0,-1.0,0.0,0.0,0.0,8.999999999999999e-08,0.0,0.0,0.0,8.999999999999999e-08
1728578978.1583261,34801,1728578978,147241024,base_link,0.001479088415252689,0.0001712840627144216,-0.7069552762223533,-0.7072566863456333,1.0,0.0,0.0,0.0,1.0,0.0,0.0,0.0,1.0,-0.000247481424594298,-7.378539885394286e-05,-0.0008376220939680934,1.2184696791468346e-07,0.0,0.0,0.0,1.2184696791468346e-07,0.0,0.0,0.0,1.2184696791468346e-07,0.0,0.0,0.0,-1.0,0.0,0.0,0.0,8.999999999999999e-08,0.0,0.0,0.0,8.999999999999999e-08
1728578978.2058618,34802,1728578978,168241024,base_link,0.0014707170210850097,0.00017980208329536497,-0.7069520733807932,-0.7072599031510639,1.0,0.0,0.0,0.0,1.0,0.0,0.0,0.0,1.0,0.00032142442069016397,-0.0013211152981966734,-0.0006830949569121002,1.2184696791468346e-07,0.0,0.0,0.0,1.2184696791468346e-07,0.0,0.0,0.0,1.2184696791468346e-07,0.0,0.0,0.0,-1.0,0.0,0.0,0.0,8.999999999999999e-08,0.0,0.0,0.0,8.999999999999999e-08
1728578978.217458,34803,1728578978,188409216,base_link,0.001469275587436228,0.00017624779784413587,-0.706953766422153,-0.7072582147331298,1.0,0.0,0.0,0.0,1.0,0.0,0.0,0.0,1.0,0.00011353192530805245,0.00019902244093827903,6.38815981801599e-05,1.2184696791468346e-07,0.0,0.0,0.0,1.2184696791468346e-07,0.0,0.0,0.0,1.2184696791468346e-07,0.0,0.0,0.0,-1.0,0.0,0.0,0.0,8.999999999999999e-08,0.0,0.0,0.0,8.999999999999999e-08
1728578978.2249062,34804,1728578978,207409216,base_link,0.0014702093476827256,0.0001916378018193482,-0.7069613758643184,-0.7072506025416003,1.0,0.0,0.0,0.0,1.0,0.0,0.0,0.0,1.0,-0.001337110879831016,-0.000774668005760759,0.0011779218912124634,1.2184696791468346e-07,0.0,0.0,0.0,1.2184696791468346e-07,0.0,0.0,0.0,1.2184696791468346e-07,0.0,0.0,0.0,-1.0,0.0,0.0,0.0,8.999999999999999e-08,0.0,0.0,0.0,8.999999999999999e-08
1728578978.2406697,34805,1728578978,228409216,base_link,0.0014764963650487606,0.00019294300755568416,-0.7069578795852955,-0.7072540839215723,1.0,0.0,0.0,0.0,1.0,0.0,0.0,0.0,1.0,-0.00040131507557816803,0.00010988538269884875,-0.0007534025935456157,1.2184696791468346e-07,0.0,0.0,0.0,1.2184696791468346e-07,0.0,0.0,0.0,1.2184696791468346e-07,0.0,0.0,0.0,-1.0,0.0,0.0,0.0,8.999999999999999e-08,0.0,0.0,0.0,8.999999999999999e-08
1728578978.2590854,34806,1728578978,247409216,base_link,0.0014634116766777383,0.000205373636504074,-0.7069558806758396,-0.7072561056829288,1.0,0.0,0.0,0.0,1.0,0.0,0.0,0.0,1.0,-0.00013411683903541416,-0.0018499628640711308,-0.00023423379752784946,1.2184696791468346e-07,0.0,0.0,0.0,1.2184696791468346e-07,0.0,0.0,0.0,1.2184696791468346e-07,0.0,0.0,0.0,-1.0,0.0,0.0,0.0,8.999999999999999e-08,0.0,0.0,0.0,8.999999999999999e-08
1728578978.2791069,34807,1728578978,268409216,base_link,0.0014622863871559119,0.00020373780194491678,-0.7069563972280619,-0.7072555921502132,1.0,0.0,0.0,0.0,1.0,0.0,0.0,0.0,1.0,1.364259333058726e-05,-0.0002662876504473388,-4.6766770537942614e-05,1.2184696791468346e-07,0.0,0.0,0.0,1.2184696791468346e-07,0.0,0.0,0.0,1.2184696791468346e-07,0.0,0.0,0.0,-1.0,0.0,0.0,0.0,8.999999999999999e-08,0.0,0.0,0.0,8.999999999999999e-08
1728578978.3161578,34808,1728578978,287576896,base_link,0.001462707328234381,0.00020864695832819997,-0.706955023745197,-0.7072569627477319,1.0,0.0,0.0,0.0,1.0,0.0,0.0,0.0,1.0,-0.00019228442397434264,0.00022668846941087395,5.5216863984242055e-05,1.2184696791468346e-07,0.0,0.0,0.0,1.2184696791468346e-07,0.0,0.0,0.0,1.2184696791468346e-07,0.0,0.0,0.0,-1.0,0.0,0.0,0.0,8.999999999999999e-08,0.0,0.0,0.0,8.999999999999999e-08
1728578978.3231947,34809,1728578978,307576896,base_link,0.0014664807259337127,0.0002066127761419155,-0.706964972926132,-0.7072470104574459,1.0,0.0,0.0,0.0,1.0,0.0,0.0,0.0,1.0,0.00036772791645489633,6.911641685292138e-05,0.001081252470612526,1.2184696791468346e-07,0.0,0.0,0.0,1.2184696791468346e-07,0.0,0.0,0.0,1.2184696791468346e-07,0.0,0.0,0.0,-1.0,0.0,0.0,0.0,8.999999999999999e-08,0.0,0.0,0.0,8.999999999999999e-08
1728578978.3381567,34810,1728578978,327576896,base_link,0.001464601002911632,0.00020830434895924364,-0.7069557758176873,-0.7072562071775774,1.0,0.0,0.0,0.0,1.0,0.0,0.0,0.0,1.0,-0.0002474926004651934,-2.5425688363611824e-05,-0.0010218287352472544,1.2184696791468346e-07,0.0,0.0,0.0,1.2184696791468346e-07,0.0,0.0,0.0,1.2184696791468346e-07,0.0,0.0,0.0,-1.0,0.0,0.0,0.0,8.999999999999999e-08,0.0,0.0,0.0,8.999999999999999e-08
1728578978.3788455,34811,1728578978,347576896,base_link,0.001459483906699249,0.00022241404148243003,-0.7069576586499795,-0.7072543314217733,1.0,0.0,0.0,0.0,1.0,0.0,0.0,0.0,1.0,-0.0005309329135343432,-0.0010106331901624799,-0.0002724862133618443,1.2184696791468346e-07,0.0,0.0,0.0,1.2184696791468346e-07,0.0,0.0,0.0,1.2184696791468346e-07,0.0,0.0,0.0,-1.0,0.0,0.0,0.0,8.999999999999999e-08,0.0,0.0,0.0,8.999999999999999e-08
1728578978.3865476,34812,1728578978,368576896,base_link,0.0014689480389733793,0.00020670928958962828,-0.7069523870520378,-0.7072595859402361,1.0,0.0,0.0,0.0,1.0,0.0,0.0,0.0,1.0,0.00035869161365553737,0.0012806529412046075,-0.0006394531810656191,1.2184696791468346e-07,0.0,0.0,0.0,1.2184696791468346e-07,0.0,0.0,0.0,1.2184696791468346e-07,0.0,0.0,0.0,-1.0,0.0,0.0,0.0,8.999999999999999e-08,0.0,0.0,0.0,8.999999999999999e-08
1728578978.4255996,34813,1728578978,388744832,base_link,0.001469193159736444,0.00020914730221810853,-0.7069625958815456,-0.7072493801717266,1.0,0.0,0.0,0.0,1.0,0.0,0.0,0.0,1.0,-8.781124779488891e-05,0.0004268861375749112,0.0010392704280093312,1.2184696791468346e-07,0.0,0.0,0.0,1.2184696791468346e-07,0.0,0.0,0.0,1.2184696791468346e-07,0.0,0.0,0.0,-1.0,0.0,0.0,0.0,8.999999999999999e-08,0.0,0.0,0.0,8.999999999999999e-08
1728578978.4256094,34814,1728578978,407744832,base_link,0.0014655310560525588,0.00021345088193148074,-0.7069609589393147,-0.7072510227585743,1.0,0.0,0.0,0.0,1.0,0.0,0.0,0.0,1.0,-0.0003176640602760017,-0.0006044944748282433,-7.226550951600068e-05,1.2184696791468346e-07,0.0,0.0,0.0,1.2184696791468346e-07,0.0,0.0,0.0,1.2184696791468346e-07,0.0,0.0,0.0,-1.0,0.0,0.0,0.0,8.999999999999999e-08,0.0,0.0,0.0,8.999999999999999e-08
1728578978.439376,34815,1728578978,427744832,base_link,0.0014687191321438443,0.0002084078512233693,-0.7069572038966604,-0.7072547711319408,1.0,0.0,0.0,0.0,1.0,0.0,0.0,0.0,1.0,0.00017859651416074485,0.0009592368733137845,-0.0005952664650976659,1.2184696791468346e-07,0.0,0.0,0.0,1.2184696791468346e-07,0.0,0.0,0.0,1.2184696791468346e-07,0.0,0.0,0.0,-1.0,0.0,0.0,0.0,8.999999999999999e-08,0.0,0.0,0.0,8.999999999999999e-08
1728578978.45947,34816,1728578978,447744832,base_link,0.0014626571529443267,0.00020777728352866,-0.7069570563808962,-0.707254931333753,1.0,0.0,0.0,0.0,1.0,0.0,0.0,0.0,1.0,0.0002678668242879212,-0.0009585908846929669,-0.00017741840565577139,1.2184696791468346e-07,0.0,0.0,0.0,1.2184696791468346e-07,0.0,0.0,0.0,1.2184696791468346e-07,0.0,0.0,0.0,-1.0,0.0,0.0,0.0,8.999999999999999e-08,0.0,0.0,0.0,8.999999999999999e-08
1728578978.4794009,34817,1728578978,468744832,base_link,0.0014571349765798618,0.00020226356225970526,-0.7069563028716106,-0.7072556975219181,1.0,0.0,0.0,0.0,1.0,0.0,0.0,0.0,1.0,0.0005408171564340591,0.0004229035985190421,-0.00023867457639425998,1.2184696791468346e-07,0.0,0.0,0.0,1.2184696791468346e-07,0.0,0.0,0.0,1.2184696791468346e-07,0.0,0.0,0.0,-1.0,0.0,0.0,0.0,8.999999999999999e-08,0.0,0.0,0.0,8.999999999999999e-08
1728578978.499901,34818,1728578978,487912768,base_link,0.0014720662698694525,0.00018090033790333398,-0.7069508543117289,-0.7072611186003946,1.0,0.0,0.0,0.0,1.0,0.0,0.0,0.0,1.0,0.00047666134196333587,0.002131339628249407,-0.000565934809856117,1.2184696791468346e-07,0.0,0.0,0.0,1.2184696791468346e-07,0.0,0.0,0.0,1.2184696791468346e-07,0.0,0.0,0.0,-1.0,0.0,0.0,0.0,8.999999999999999e-08,0.0,0.0,0.0,8.999999999999999e-08
1728578978.5430272,34819,1728578978,507912768,base_link,0.001467858191834207,0.00017483093130269108,-0.7069480621092536,-0.7072639198392953,1.0,0.0,0.0,0.0,1.0,0.0,0.0,0.0,1.0,0.0007229717448353767,0.0008814198081381619,-0.00011308823013678204,1.2184696791468346e-07,0.0,0.0,0.0,1.2184696791468346e-07,0.0,0.0,0.0,1.2184696791468346e-07,0.0,0.0,0.0,-1.0,0.0,0.0,0.0,8.999999999999999e-08,0.0,0.0,0.0,8.999999999999999e-08
1728578978.5430381,34820,1728578978,527912768,base_link,0.0014722696622023572,0.00016973724011057416,-0.7069492439957026,-0.7072627305501228,1.0,0.0,0.0,0.0,1.0,0.0,0.0,0.0,1.0,4.7236288082785904e-05,0.0010388633236289024,-2.617450081743313e-05,1.2184696791468346e-07,0.0,0.0,0.0,1.2184696791468346e-07,0.0,0.0,0.0,1.2184696791468346e-07,0.0,0.0,0.0,-1.0,0.0,0.0,0.0,8.999999999999999e-08,0.0,0.0,0.0,8.999999999999999e-08
1728578978.5713396,34821,1728578978,547912768,base_link,0.0014689043475821129,0.00017369614751809053,-0.7069481216926635,-0.707263858390121,1.0,0.0,0.0,0.0,1.0,0.0,0.0,0.0,1.0,-2.836046041920781e-05,8.8238637545146e-05,-0.0004520078073255718,1.2184696791468346e-07,0.0,0.0,0.0,1.2184696791468346e-07,0.0,0.0,0.0,1.2184696791468346e-07,0.0,0.0,0.0,-1.0,0.0,0.0,0.0,8.999999999999999e-08,0.0,0.0,0.0,8.999999999999999e-08
1728578978.5805387,34822,1728578978,568912768,base_link,0.0014601114943074529,0.00018770423726431474,-0.7069450214756176,-0.7072669718376379,1.0,0.0,0.0,0.0,1.0,0.0,0.0,0.0,1.0,-0.00039628654485568404,-0.001842522295191884,-0.0005359919159673152,1.2184696791468346e-07,0.0,0.0,0.0,1.2184696791468346e-07,0.0,0.0,0.0,1.2184696791468346e-07,0.0,0.0,0.0,-1.0,0.0,0.0,0.0,8.999999999999999e-08,0.0,0.0,0.0,8.999999999999999e-08
1728578978.5993903,34823,1728578978,589085568,base_link,0.001459225036983288,0.0001868855226206809,-0.7069445345160277,-0.7072674606215176,1.0,0.0,0.0,0.0,1.0,0.0,0.0,0.0,1.0,0.00026801484636962414,-7.432274287566569e-06,-0.00021399441175162792,1.2184696791468346e-07,0.0,0.0,0.0,1.2184696791468346e-07,0.0,0.0,0.0,1.2184696791468346e-07,0.0,0.0,0.0,-1.0,0.0,0.0,0.0,8.999999999999999e-08,0.0,0.0,0.0,8.999999999999999e-08
1728578978.6195827,34824,1728578978,608085568,base_link,0.0014379392556151365,0.00019066574630352085,-0.7069441629908595,-0.7072678745641029,1.0,0.0,0.0,0.0,1.0,0.0,0.0,0.0,1.0,0.0008690427057445049,-0.0015611876733601093,9.378817048855145e-05,1.2184696791468346e-07,0.0,0.0,0.0,1.2184696791468346e-07,0.0,0.0,0.0,1.2184696791468346e-07,0.0,0.0,0.0,-1.0,0.0,0.0,0.0,8.999999999999999e-08,0.0,0.0,0.0,8.999999999999999e-08
1728578978.6402836,34825,1728578978,628085568,base_link,0.0014424496819029765,0.00019587775567953133,-0.7069506237242423,-0.7072614061199187,1.0,0.0,0.0,0.0,1.0,0.0,0.0,0.0,1.0,-0.0006169875850901008,-0.0004404684586916117,0.0011332808062434196,1.2184696791468346e-07,0.0,0.0,0.0,1.2184696791468346e-07,0.0,0.0,0.0,1.2184696791468346e-07,0.0,0.0,0.0,-1.0,0.0,0.0,0.0,8.999999999999999e-08,0.0,0.0,0.0,8.999999999999999e-08
1728578978.6593373,34826,1728578978,648085568,base_link,0.0014416407633436794,0.0001897814843215461,-0.7069440146846524,-0.7072680155050443,1.0,0.0,0.0,0.0,1.0,0.0,0.0,0.0,1.0,-4.735253969556652e-05,0.0007628704188391565,-0.000903058215044439,1.2184696791468346e-07,0.0,0.0,0.0,1.2184696791468346e-07,0.0,0.0,0.0,1.2184696791468346e-07,0.0,0.0,0.0,-1.0,0.0,0.0,0.0,8.999999999999999e-08,0.0,0.0,0.0,8.999999999999999e-08
1728578978.6798804,34827,1728578978,669085568,base_link,0.0014435821201301887,0.00019785292077605346,-0.7069366419009628,-0.7072753786628473,1.0,0.0,0.0,0.0,1.0,0.0,0.0,0.0,1.0,-0.0003203421365469694,-0.000259646709309891,-0.0008316010935232043,1.2184696791468346e-07,0.0,0.0,0.0,1.2184696791468346e-07,0.0,0.0,0.0,1.2184696791468346e-07,0.0,0.0,0.0,-1.0,0.0,0.0,0.0,8.999999999999999e-08,0.0,0.0,0.0,8.999999999999999e-08
1728578978.6993709,34828,1728578978,688258112,base_link,0.0014417345501697583,0.0001962306855652008,-0.7069459986988509,-0.7072660304430641,1.0,0.0,0.0,0.0,1.0,0.0,0.0,0.0,1.0,1.7334714357275516e-05,-0.0002817857894115149,0.0010375995188951492,1.2184696791468346e-07,0.0,0.0,0.0,1.2184696791468346e-07,0.0,0.0,0.0,1.2184696791468346e-07,0.0,0.0,0.0,-1.0,0.0,0.0,0.0,8.999999999999999e-08,0.0,0.0,0.0,8.999999999999999e-08
1728578978.719352,34829,1728578978,708258112,base_link,0.001431447837822852,0.00019187760075227612,-0.7069457684636108,-0.7072662826626679,1.0,0.0,0.0,0.0,1.0,0.0,0.0,0.0,1.0,0.001291164313443005,-9.607919491827484e-05,0.00036855455255135894,1.2184696791468346e-07,0.0,0.0,0.0,1.2184696791468346e-07,0.0,0.0,0.0,1.2184696791468346e-07,0.0,0.0,0.0,-1.0,0.0,0.0,0.0,8.999999999999999e-08,0.0,0.0,0.0,8.999999999999999e-08
1728578978.7645187,34830,1728578978,728258112,base_link,0.0014201216996605332,0.00020151919789182106,-0.7069506372365506,-0.7072614362137991,1.0,0.0,0.0,0.0,1.0,0.0,0.0,0.0,1.0,-0.00026851746952161193,-0.001151318196207285,0.00020175066310912384,1.2184696791468346e-07,0.0,0.0,0.0,1.2184696791468346e-07,0.0,0.0,0.0,1.2184696791468346e-07,0.0,0.0,0.0,-1.0,0.0,0.0,0.0,8.999999999999999e-08,0.0,0.0,0.0,8.999999999999999e-08
1728578978.7645245,34831,1728578978,748258112,base_link,0.0014350795975959386,0.00020344229273646706,-0.7069529846657527,-0.707259059065323,1.0,0.0,0.0,0.0,1.0,0.0,0.0,0.0,1.0,-0.0009272560710087419,0.0005164215108379723,0.0006350450566969811,1.2184696791468346e-07,0.0,0.0,0.0,1.2184696791468346e-07,0.0,0.0,0.0,1.2184696791468346e-07,0.0,0.0,0.0,-1.0,0.0,0.0,0.0,8.999999999999999e-08,0.0,0.0,0.0,8.999999999999999e-08
1728578978.780037,34832,1728578978,769258112,base_link,0.001432347316177034,0.00020160860721179044,-0.7069538455894258,-0.707258204576983,1.0,0.0,0.0,0.0,1.0,0.0,0.0,0.0,1.0,0.0003143729118164629,0.00013280246639624238,-7.830752292647959e-05,1.2184696791468346e-07,0.0,0.0,0.0,1.2184696791468346e-07,0.0,0.0,0.0,1.2184696791468346e-07,0.0,0.0,0.0,-1.0,0.0,0.0,0.0,8.999999999999999e-08,0.0,0.0,0.0,8.999999999999999e-08
1728578978.800056,34833,1728578978,789430144,base_link,0.001425842445964711,0.0001975388723948261,-0.706949917191571,-0.7072621455546338,1.0,0.0,0.0,0.0,1.0,0.0,0.0,0.0,1.0,0.00045515698730014265,4.6207220293581404e-05,-0.0006691787857562304,1.2184696791468346e-07,0.0,0.0,0.0,1.2184696791468346e-07,0.0,0.0,0.0,1.2184696791468346e-07,0.0,0.0,0.0,-1.0,0.0,0.0,0.0,8.999999999999999e-08,0.0,0.0,0.0,8.999999999999999e-08
1728578978.819393,34834,1728578978,808430144,base_link,0.0014073625650138613,0.00019475186677409193,-0.7069494902941862,-0.7072626100502636,1.0,0.0,0.0,0.0,1.0,0.0,0.0,0.0,1.0,0.0014706063084304333,-0.000974732160102576,-0.00042810055310837914,1.2184696791468346e-07,0.0,0.0,0.0,1.2184696791468346e-07,0.0,0.0,0.0,1.2184696791468346e-07,0.0,0.0,0.0,-1.0,0.0,0.0,0.0,8.999999999999999e-08,0.0,0.0,0.0,8.999999999999999e-08
1728578978.839129,34835,1728578978,828430144,base_link,0.0014181608717836114,0.00019450725233516612,-0.7069462714434323,-0.7072658059590465,1.0,0.0,0.0,0.0,1.0,0.0,0.0,0.0,1.0,-0.0001906182587845251,0.0008712427224963903,0.00024942588061094273,1.2184696791468346e-07,0.0,0.0,0.0,1.2184696791468346e-07,0.0,0.0,0.0,1.2184696791468346e-07,0.0,0.0,0.0,-1.0,0.0,0.0,0.0,8.999999999999999e-08,0.0,0.0,0.0,8.999999999999999e-08
1728578978.8590672,34836,1728578978,848430144,base_link,0.0014214849761420513,0.00020031770314526078,-0.7069447351973939,-0.7072673332128151,1.0,0.0,0.0,0.0,1.0,0.0,0.0,0.0,1.0,-0.0007043784717097878,-0.00010433746501803398,-4.8191432142630206e-05,1.2184696791468346e-07,0.0,0.0,0.0,1.2184696791468346e-07,0.0,0.0,0.0,1.2184696791468346e-07,0.0,0.0,0.0,-1.0,0.0,0.0,0.0,8.999999999999999e-08,0.0,0.0,0.0,8.999999999999999e-08
1728578978.8869195,34837,1728578978,869430144,base_link,0.0014332019482303834,0.00021128555176913127,-0.706945953130548,-0.7072660889954588,1.0,0.0,0.0,0.0,1.0,0.0,0.0,0.0,1.0,-0.001366004697047174,0.0002590140502434224,-0.00018272601300850513,1.2184696791468346e-07,0.0,0.0,0.0,1.2184696791468346e-07,0.0,0.0,0.0,1.2184696791468346e-07,0.0,0.0,0.0,-1.0,0.0,0.0,0.0,8.999999999999999e-08,0.0,0.0,0.0,8.999999999999999e-08
1728578978.900674,34838,1728578978,889602432,base_link,0.0014414349143699852,0.00020234680068607775,-0.7069347578477303,-0.7072772649166174,1.0,0.0,0.0,0.0,1.0,0.0,0.0,0.0,1.0,-2.9328526579774916e-05,0.0005003049154765903,-0.0010859861504286528,1.2184696791468346e-07,0.0,0.0,0.0,1.2184696791468346e-07,0.0,0.0,0.0,1.2184696791468346e-07,0.0,0.0,0.0,-1.0,0.0,0.0,0.0,8.999999999999999e-08,0.0,0.0,0.0,8.999999999999999e-08
1728578978.9197726,34839,1728578978,908602432,base_link,0.001435024351861002,0.0001968860658801118,-0.7069381692429302,-0.707273869733953,1.0,0.0,0.0,0.0,1.0,0.0,0.0,0.0,1.0,0.0006232890882529318,0.0006403308361768723,8.234538836404673e-05,1.2184696791468346e-07,0.0,0.0,0.0,1.2184696791468346e-07,0.0,0.0,0.0,1.2184696791468346e-07,0.0,0.0,0.0,-1.0,0.0,0.0,0.0,8.999999999999999e-08,0.0,0.0,0.0,8.999999999999999e-08
1728578978.9409552,34840,1728578978,928602432,base_link,0.001425578665244945,0.0002107036414913845,-0.7069344316431834,-0.7072776206602144,1.0,0.0,0.0,0.0,1.0,0.0,0.0,0.0,1.0,-3.855166141875088e-06,-0.0012722950195893645,-0.0006587803363800048,1.2184696791468346e-07,0.0,0.0,0.0,1.2184696791468346e-07,0.0,0.0,0.0,1.2184696791468346e-07,0.0,0.0,0.0,-1.0,0.0,0.0,0.0,8.999999999999999e-08,0.0,0.0,0.0,8.999999999999999e-08
1728578978.978381,34841,1728578978,948602432,base_link,0.0014190249262865282,0.00019939407967369736,-0.7069383746643859,-0.7072736959884312,1.0,0.0,0.0,0.0,1.0,0.0,0.0,0.0,1.0,0.001233589486218989,5.66750677535311e-05,0.0005143777234479785,1.2184696791468346e-07,0.0,0.0,0.0,1.2184696791468346e-07,0.0,0.0,0.0,1.2184696791468346e-07,0.0,0.0,0.0,-1.0,0.0,0.0,0.0,8.999999999999999e-08,0.0,0.0,0.0,8.999999999999999e-08
1728578978.990827,34842,1728578978,969602432,base_link,0.0014113530756537155,0.00019777327015303627,-0.7069387139155274,-0.707273372703716,1.0,0.0,0.0,0.0,1.0,0.0,0.0,0.0,1.0,0.000612903677392751,-8.869211887940768e-05,-0.0003537988231983036,1.2184696791468346e-07,0.0,0.0,0.0,1.2184696791468346e-07,0.0,0.0,0.0,1.2184696791468346e-07,0.0,0.0,0.0,-1.0,0.0,0.0,0.0,8.999999999999999e-08,0.0,0.0,0.0,8.999999999999999e-08
1728578979.0000718,34843,1728578978,988774464,base_link,0.0014262161803310022,0.00019851636544658682,-0.7069330811057151,-0.7072789727802177,1.0,0.0,0.0,0.0,1.0,0.0,0.0,0.0,1.0,-0.0008022282272577286,0.000649463152512908,0.0001827760715968906,1.2184696791468346e-07,0.0,0.0,0.0,1.2184696791468346e-07,0.0,0.0,0.0,1.2184696791468346e-07,0.0,0.0,0.0,-1.0,0.0,0.0,0.0,8.999999999999999e-08,0.0,0.0,0.0,8.999999999999999e-08
1728578979.0200546,34844,1728578979,8774464,base_link,0.00143268514804484,0.00019847382392406912,-0.7069326952219915,-0.7072793454128139,1.0,0.0,0.0,0.0,1.0,0.0,0.0,0.0,1.0,-0.0004599415697157383,0.0005266900989226997,-0.0001877225004136563,1.2184696791468346e-07,0.0,0.0,0.0,1.2184696791468346e-07,0.0,0.0,0.0,1.2184696791468346e-07,0.0,0.0,0.0,-1.0,0.0,0.0,0.0,8.999999999999999e-08,0.0,0.0,0.0,8.999999999999999e-08
1728578979.0400286,34845,1728578979,28774464,base_link,0.0014217363649779826,0.00018677666406525143,-0.7069411403815323,-0.7072709295710129,1.0,0.0,0.0,0.0,1.0,0.0,0.0,0.0,1.0,0.0016105611575767398,8.611923840362588e-05,0.0007764783222228289,1.2184696791468346e-07,0.0,0.0,0.0,1.2184696791468346e-07,0.0,0.0,0.0,1.2184696791468346e-07,0.0,0.0,0.0,-1.0,0.0,0.0,0.0,8.999999999999999e-08,0.0,0.0,0.0,8.999999999999999e-08
1728578979.063596,34846,1728578979,48774464,base_link,0.001439993218573132,0.00018984703479289414,-0.7069362394800965,-0.7072757904010099,1.0,0.0,0.0,0.0,1.0,0.0,0.0,0.0,1.0,-0.0009881507139652967,0.001308330800384283,-1.9017199520021836e-05,1.2184696791468346e-07,0.0,0.0,0.0,1.2184696791468346e-07,0.0,0.0,0.0,1.2184696791468346e-07,0.0,0.0,0.0,-1.0,0.0,0.0,0.0,8.999999999999999e-08,0.0,0.0,0.0,8.999999999999999e-08
1728578979.0805862,34847,1728578979,69774464,base_link,0.0014462796787495752,0.00019253587057904803,-0.70693858963833,-0.7072734278093572,1.0,0.0,0.0,0.0,1.0,0.0,0.0,0.0,1.0,-0.0004981330712325871,0.0003135748556815088,4.7095236368477304e-05,1.2184696791468346e-07,0.0,0.0,0.0,1.2184696791468346e-07,0.0,0.0,0.0,1.2184696791468346e-07,0.0,0.0,0.0,-1.0,0.0,0.0,0.0,8.999999999999999e-08,0.0,0.0,0.0,8.999999999999999e-08
1728578979.1010628,34848,1728578979,89946240,base_link,0.0014490582418905662,0.00019360365068094503,-0.7069412983389347,-0.7072707144019886,1.0,0.0,0.0,0.0,1.0,0.0,0.0,0.0,1.0,-0.0004141801910009235,0.001053539221175015,0.00034611637238413085,1.2184696791468346e-07,0.0,0.0,0.0,1.2184696791468346e-07,0.0,0.0,0.0,1.2184696791468346e-07,0.0,0.0,0.0,-1.0,0.0,0.0,0.0,8.999999999999999e-08,0.0,0.0,0.0,8.999999999999999e-08
1728578979.1203988,34849,1728578979,109946240,base_link,0.0014405158240789909,0.00018964279236434123,-0.7069346386913478,-0.7072773894082188,1.0,0.0,0.0,0.0,1.0,0.0,0.0,0.0,1.0,0.0006004594033583999,-1.195661025121819e-05,-0.0008991447975859046,1.2184696791468346e-07,0.0,0.0,0.0,1.2184696791468346e-07,0.0,0.0,0.0,1.2184696791468346e-07,0.0,0.0,0.0,-1.0,0.0,0.0,0.0,8.999999999999999e-08,0.0,0.0,0.0,8.999999999999999e-08
1728578979.1398082,34850,1728578979,128946240,base_link,0.0014417074981634022,0.00018499452944649778,-0.7069314258967974,-0.7072805994342236,1.0,0.0,0.0,0.0,1.0,0.0,0.0,0.0,1.0,0.00019079327466897666,0.0002907720336224883,-0.00041119733941741293,1.2184696791468346e-07,0.0,0.0,0.0,1.2184696791468346e-07,0.0,0.0,0.0,1.2184696791468346e-07,0.0,0.0,0.0,-1.0,0.0,0.0,0.0,8.999999999999999e-08,0.0,0.0,0.0,8.999999999999999e-08
1728578979.1605146,34851,1728578979,148946240,base_link,0.0014453861266896346,0.00019847349738709083,-0.7069292312511426,-0.7072827818276676,1.0,0.0,0.0,0.0,1.0,0.0,0.0,0.0,1.0,-0.0011069097090512514,-0.0007350883679464459,8.689775131642828e-05,1.2184696791468346e-07,0.0,0.0,0.0,1.2184696791468346e-07,0.0,0.0,0.0,1.2184696791468346e-07,0.0,0.0,0.0,-1.0,0.0,0.0,0.0,8.999999999999999e-08,0.0,0.0,0.0,8.999999999999999e-08
1728578979.1803296,34852,1728578979,169946240,base_link,0.0014470803102895008,0.00019548366515365341,-0.7069226606945515,-0.7072893464072876,1.0,0.0,0.0,0.0,1.0,0.0,0.0,0.0,1.0,-0.0005240985192358494,0.0005554681993089615,-0.0011336356401443481,1.2184696791468346e-07,0.0,0.0,0.0,1.2184696791468346e-07,0.0,0.0,0.0,1.2184696791468346e-07,0.0,0.0,0.0,-1.0,0.0,0.0,0.0,8.999999999999999e-08,0.0,0.0,0.0,8.999999999999999e-08
1728578979.2030766,34853,1728578979,189117504,base_link,0.001430944385019404,0.00020559061825450723,-0.7069282022181181,-0.7072838376771551,1.0,0.0,0.0,0.0,1.0,0.0,0.0,0.0,1.0,0.0005611520609818399,-0.001144979614764452,0.0004336329293437304,1.2184696791468346e-07,0.0,0.0,0.0,1.2184696791468346e-07,0.0,0.0,0.0,1.2184696791468346e-07,0.0,0.0,0.0,-1.0,0.0,0.0,0.0,8.999999999999999e-08,0.0,0.0,0.0,8.999999999999999e-08
1728578979.2213366,34854,1728578979,209117504,base_link,0.0014457643954123311,0.0001963621639945412,-0.7069192712713872,-0.7072927365047262,1.0,0.0,0.0,0.0,1.0,0.0,0.0,0.0,1.0,-0.00040344285662285984,0.00131327286362648,-0.0008114717202261091,1.2184696791468346e-07,0.0,0.0,0.0,1.2184696791468346e-07,0.0,0.0,0.0,1.2184696791468346e-07,0.0,0.0,0.0,-1.0,0.0,0.0,0.0,8.999999999999999e-08,0.0,0.0,0.0,8.999999999999999e-08
1728578979.2664144,34855,1728578979,229117504,base_link,0.0014525225953847536,0.00019023180678899085,-0.7069172756148604,-0.7072947189306824,1.0,0.0,0.0,0.0,1.0,0.0,0.0,0.0,1.0,0.00016333106032107025,0.0012920426670461893,-0.00042792846215888874,1.2184696791468346e-07,0.0,0.0,0.0,1.2184696791468346e-07,0.0,0.0,0.0,1.2184696791468346e-07,0.0,0.0,0.0,-1.0,0.0,0.0,0.0,8.999999999999999e-08,0.0,0.0,0.0,8.999999999999999e-08
1728578979.2744489,34856,1728578979,249117504,base_link,0.001444097537271461,0.00018981162469594898,-0.706922928691642,-0.7072890861902803,1.0,0.0,0.0,0.0,1.0,0.0,0.0,0.0,1.0,0.0005617852439172566,-0.000441452080849558,0.000788516947068274,1.2184696791468346e-07,0.0,0.0,0.0,1.2184696791468346e-07,0.0,0.0,0.0,1.2184696791468346e-07,0.0,0.0,0.0,-1.0,0.0,0.0,0.0,8.999999999999999e-08,0.0,0.0,0.0,8.999999999999999e-08
1728578979.2863197,34857,1728578979,270117504,base_link,0.0014384825418622025,0.0001804125718545249,-0.7069298346356704,-0.7072821976561154,1.0,0.0,0.0,0.0,1.0,0.0,0.0,0.0,1.0,0.0005231996183283627,-1.1714873835443288e-06,0.0009493359830230474,1.2184696791468346e-07,0.0,0.0,0.0,1.2184696791468346e-07,0.0,0.0,0.0,1.2184696791468346e-07,0.0,0.0,0.0,-1.0,0.0,0.0,0.0,8.999999999999999e-08,0.0,0.0,0.0,8.999999999999999e-08
1728578979.3010135,34858,1728578979,289288512,base_link,0.0014402954922439098,0.00018011801050733185,-0.7069218781304456,-0.7072901464935878,1.0,0.0,0.0,0.0,1.0,0.0,0.0,0.0,1.0,0.0003013918176293373,0.0001623412681510671,-0.000871653959620744,1.2184696791468346e-07,0.0,0.0,0.0,1.2184696791468346e-07,0.0,0.0,0.0,1.2184696791468346e-07,0.0,0.0,0.0,-1.0,0.0,0.0,0.0,8.999999999999999e-08,0.0,0.0,0.0,8.999999999999999e-08
1728578979.3226154,34859,1728578979,309288512,base_link,0.0014393362247988608,0.0001799461508125584,-0.7069233830698439,-0.7072886443310831,1.0,0.0,0.0,0.0,1.0,0.0,0.0,0.0,1.0,-0.0002549341879785061,0.0002670379471965134,0.00015101549797691402,1.2184696791468346e-07,0.0,0.0,0.0,1.2184696791468346e-07,0.0,0.0,0.0,1.2184696791468346e-07,0.0,0.0,0.0,-1.0,0.0,0.0,0.0,8.999999999999999e-08,0.0,0.0,0.0,8.999999999999999e-08
1728578979.341145,34860,1728578979,329288512,base_link,0.0014303972144252013,0.0001875236110962996,-0.7069256135748295,-0.7072864311370288,1.0,0.0,0.0,0.0,1.0,0.0,0.0,0.0,1.0,7.72828352637589e-05,-0.0014337911270558834,0.0002589361974969508,1.2184696791468346e-07,0.0,0.0,0.0,1.2184696791468346e-07,0.0,0.0,0.0,1.2184696791468346e-07,0.0,0.0,0.0,-1.0,0.0,0.0,0.0,8.999999999999999e-08,0.0,0.0,0.0,8.999999999999999e-08
1728578979.3620005,34861,1728578979,349288512,base_link,0.001452937308021627,0.00018658681488072725,-0.7069167147823235,-0.7072952795826553,1.0,0.0,0.0,0.0,1.0,0.0,0.0,0.0,1.0,-0.0015351774636656046,0.0010595619678497312,-0.0011704720091074707,1.2184696791468346e-07,0.0,0.0,0.0,1.2184696791468346e-07,0.0,0.0,0.0,1.2184696791468346e-07,0.0,0.0,0.0,-1.0,0.0,0.0,0.0,8.999999999999999e-08,0.0,0.0,0.0,8.999999999999999e-08
1728578979.3848608,34862,1728578979,370288512,base_link,0.0014622576524005743,0.00018598663568649822,-0.7069136667306345,-0.7072983069405574,1.0,0.0,0.0,0.0,1.0,0.0,0.0,0.0,1.0,-0.0010437569580972195,0.0012247415725141764,-0.00047793771955184655,1.2184696791468346e-07,0.0,0.0,0.0,1.2184696791468346e-07,0.0,0.0,0.0,1.2184696791468346e-07,0.0,0.0,0.0,-1.0,0.0,0.0,0.0,8.999999999999999e-08,0.0,0.0,0.0,8.999999999999999e-08
1728578979.4002492,34863,1728578979,390459008,base_link,0.00147116983181114,0.00017480024490441274,-0.7069248012093053,-0.7072871627135504,1.0,0.0,0.0,0.0,1.0,0.0,0.0,0.0,1.0,0.0003357866080477834,0.0014428729191422465,0.0016826064093038438,1.2184696791468346e-07,0.0,0.0,0.0,1.2184696791468346e-07,0.0,0.0,0.0,1.2184696791468346e-07,0.0,0.0,0.0,-1.0,0.0,0.0,0.0,8.999999999999999e-08,0.0,0.0,0.0,8.999999999999999e-08
1728578979.420212,34864,1728578979,409459008,base_link,0.0014519287228649917,0.00017369037186741707,-0.7069254879969532,-0.7072865163106872,1.0,0.0,0.0,0.0,1.0,0.0,0.0,0.0,1.0,0.0010339411674067378,-0.0010879257461056113,0.00029395069577731203,1.2184696791468346e-07,0.0,0.0,0.0,1.2184696791468346e-07,0.0,0.0,0.0,1.2184696791468346e-07,0.0,0.0,0.0,-1.0,0.0,0.0,0.0,8.999999999999999e-08,0.0,0.0,0.0,8.999999999999999e-08
1728578979.441364,34865,1728578979,430459008,base_link,0.0014593320691553171,0.0001736515794195778,-0.7069334596385687,-0.7072785334212293,1.0,0.0,0.0,0.0,1.0,0.0,0.0,0.0,1.0,-0.00035583111457526684,0.0006536151631735266,0.0008045824943110346,1.2184696791468346e-07,0.0,0.0,0.0,1.2184696791468346e-07,0.0,0.0,0.0,1.2184696791468346e-07,0.0,0.0,0.0,-1.0,0.0,0.0,0.0,8.999999999999999e-08,0.0,0.0,0.0,8.999999999999999e-08
1728578979.485121,34866,1728578979,449459008,base_link,0.0014615849393385747,0.0001777553386739175,-0.7069348601343711,-0.7072771279345189,1.0,0.0,0.0,0.0,1.0,0.0,0.0,0.0,1.0,-0.00017367006512358785,0.00025584886316210037,0.00034688055166043336,1.2184696791468346e-07,0.0,0.0,0.0,1.2184696791468346e-07,0.0,0.0,0.0,1.2184696791468346e-07,0.0,0.0,0.0,-1.0,0.0,0.0,0.0,8.999999999999999e-08,0.0,0.0,0.0,8.999999999999999e-08
1728578979.4929261,34867,1728578979,470459008,base_link,0.0014536533876262714,0.00017019222630543392,-0.7069302108130255,-0.7072817931816754,1.0,0.0,0.0,0.0,1.0,0.0,0.0,0.0,1.0,0.0010443080682307482,-0.00040742923738434916,-0.00040928646922111506,1.2184696791468346e-07,0.0,0.0,0.0,1.2184696791468346e-07,0.0,0.0,0.0,1.2184696791468346e-07,0.0,0.0,0.0,-1.0,0.0,0.0,0.0,8.999999999999999e-08,0.0,0.0,0.0,8.999999999999999e-08
1728578979.5009732,34868,1728578979,489628992,base_link,0.0014609960640636658,0.00017797383322914193,-0.706938228886567,-0.7072737619582243,1.0,0.0,0.0,0.0,1.0,0.0,0.0,0.0,1.0,-0.0008510596235282719,0.00016571879677940176,0.0013344213366508484,1.2184696791468346e-07,0.0,0.0,0.0,1.2184696791468346e-07,0.0,0.0,0.0,1.2184696791468346e-07,0.0,0.0,0.0,-1.0,0.0,0.0,0.0,8.999999999999999e-08,0.0,0.0,0.0,8.999999999999999e-08
1728578979.5205119,34869,1728578979,509628992,base_link,0.0014543119113175497,0.00018241669529367157,-0.7069420929823163,-0.7072699123183427,1.0,0.0,0.0,0.0,1.0,0.0,0.0,0.0,1.0,0.0001700640277704224,-0.00038686767220497126,0.0006069123046472669,1.2184696791468346e-07,0.0,0.0,0.0,1.2184696791468346e-07,0.0,0.0,0.0,1.2184696791468346e-07,0.0,0.0,0.0,-1.0,0.0,0.0,0.0,8.999999999999999e-08,0.0,0.0,0.0,8.999999999999999e-08
1728578979.5410964,34870,1728578979,529628992,base_link,0.0014547163172843247,0.0001732493903618773,-0.7069438845266925,-0.707268123073135,1.0,0.0,0.0,0.0,1.0,0.0,0.0,0.0,1.0,0.0006201164796948433,0.0005886661820113659,0.0002507126191630959,1.2184696791468346e-07,0.0,0.0,0.0,1.2184696791468346e-07,0.0,0.0,0.0,1.2184696791468346e-07,0.0,0.0,0.0,-1.0,0.0,0.0,0.0,8.999999999999999e-08,0.0,0.0,0.0,8.999999999999999e-08
1728578979.5736725,34871,1728578979,550628992,base_link,0.0014482987903254262,0.00017205508085704266,-0.7069320484395019,-0.7072799669980715,1.0,0.0,0.0,0.0,1.0,0.0,0.0,0.0,1.0,0.0005247871740721166,-0.00021231314167380352,-0.0015368119347840548,1.2184696791468346e-07,0.0,0.0,0.0,1.2184696791468346e-07,0.0,0.0,0.0,1.2184696791468346e-07,0.0,0.0,0.0,-1.0,0.0,0.0,0.0,8.999999999999999e-08,0.0,0.0,0.0,8.999999999999999e-08
1728578979.582144,34872,1728578979,570628992,base_link,0.0014531218692581207,0.0001580441884909621,-0.7069375861460866,-0.707274425349038,1.0,0.0,0.0,0.0,1.0,0.0,0.0,0.0,1.0,0.000352555449353531,0.0010039450135082006,0.0005508057074621319,1.2184696791468346e-07,0.0,0.0,0.0,1.2184696791468346e-07,0.0,0.0,0.0,1.2184696791468346e-07,0.0,0.0,0.0,-1.0,0.0,0.0,0.0,8.999999999999999e-08,0.0,0.0,0.0,8.999999999999999e-08
1728578979.6021457,34873,1728578979,590799744,base_link,0.0014469063596114465,0.00015917045151766823,-0.7069308168409624,-0.707281203855527,1.0,0.0,0.0,0.0,1.0,0.0,0.0,0.0,1.0,0.0005263088387437165,-0.00017407970153726645,-0.0005797140765935183,1.2184696791468346e-07,0.0,0.0,0.0,1.2184696791468346e-07,0.0,0.0,0.0,1.2184696791468346e-07,0.0,0.0,0.0,-1.0,0.0,0.0,0.0,8.999999999999999e-08,0.0,0.0,0.0,8.999999999999999e-08
1728578979.6216633,34874,1728578979,609799744,base_link,0.0014519584969274826,0.00015329657905083628,-0.7069280694975326,-0.7072839407714372,1.0,0.0,0.0,0.0,1.0,0.0,0.0,0.0,1.0,0.0001901393261505291,0.0009605410741642116,-0.0006728744483552874,1.2184696791468346e-07,0.0,0.0,0.0,1.2184696791468346e-07,0.0,0.0,0.0,1.2184696791468346e-07,0.0,0.0,0.0,-1.0,0.0,0.0,0.0,8.999999999999999e-08,0.0,0.0,0.0,8.999999999999999e-08
1728578979.6420753,34875,1728578979,629799744,base_link,0.0014531134522346929,0.00015352928986551648,-0.7069228812448475,-0.7072891239532355,1.0,0.0,0.0,0.0,1.0,0.0,0.0,0.0,1.0,0.00013427110388875008,-9.684992255643024e-05,-0.0010953866876661777,1.2184696791468346e-07,0.0,0.0,0.0,1.2184696791468346e-07,0.0,0.0,0.0,1.2184696791468346e-07,0.0,0.0,0.0,-1.0,0.0,0.0,0.0,8.999999999999999e-08,0.0,0.0,0.0,8.999999999999999e-08
1728578979.684881,34876,1728578979,649799744,base_link,0.0014443151968516117,0.00014601114873505876,-0.7069203760529396,-0.7072916474521154,1.0,0.0,0.0,0.0,1.0,0.0,0.0,0.0,1.0,0.0009395187953487039,0.0005233327392488718,-0.00028117137844674295,1.2184696791468346e-07,0.0,0.0,0.0,1.2184696791468346e-07,0.0,0.0,0.0,1.2184696791468346e-07,0.0,0.0,0.0,-1.0,0.0,0.0,0.0,8.999999999999999e-08,0.0,0.0,0.0,8.999999999999999e-08
1728578979.7217457,34877,1728578979,670799744,base_link,0.0014432735146338842,0.00014307650979823364,-0.7069256479343442,-0.7072863810248872,1.0,0.0,0.0,0.0,1.0,0.0,0.0,0.0,1.0,0.0005859959637746215,0.0002064073341898621,0.0007025006343610585,1.2184696791468346e-07,0.0,0.0,0.0,1.2184696791468346e-07,0.0,0.0,0.0,1.2184696791468346e-07,0.0,0.0,0.0,-1.0,0.0,0.0,0.0,8.999999999999999e-08,0.0,0.0,0.0,8.999999999999999e-08
1728578979.721749,34878,1728578979,690970240,base_link,0.0014516539750753575,0.00014735957698827642,-0.7069253575318536,-0.7072866532491282,1.0,0.0,0.0,0.0,1.0,0.0,0.0,0.0,1.0,-0.0008106943569146097,1.4131015632301549e-05,-0.0001702605513855815,1.2184696791468346e-07,0.0,0.0,0.0,1.2184696791468346e-07,0.0,0.0,0.0,1.2184696791468346e-07,0.0,0.0,0.0,-1.0,0.0,0.0,0.0,8.999999999999999e-08,0.0,0.0,0.0,8.999999999999999e-08
1728578979.7296104,34879,1728578979,709970240,base_link,0.0014567914290129966,0.0001476163578125211,-0.7069186182864602,-0.7072933783714542,1.0,0.0,0.0,0.0,1.0,0.0,0.0,0.0,1.0,-0.0005722010391764343,0.00022956167231313876,-0.0007659833645448089,1.2184696791468346e-07,0.0,0.0,0.0,1.2184696791468346e-07,0.0,0.0,0.0,1.2184696791468346e-07,0.0,0.0,0.0,-1.0,0.0,0.0,0.0,8.999999999999999e-08,0.0,0.0,0.0,8.999999999999999e-08
1728578979.7424893,34880,1728578979,729970240,base_link,0.0014532143849244864,0.00013699491665826734,-0.7069201891234231,-0.7072918178588298,1.0,0.0,0.0,0.0,1.0,0.0,0.0,0.0,1.0,0.0004898105980828404,0.0010747989872470498,-0.00029334123246371757,1.2184696791468346e-07,0.0,0.0,0.0,1.2184696791468346e-07,0.0,0.0,0.0,1.2184696791468346e-07,0.0,0.0,0.0,-1.0,0.0,0.0,0.0,8.999999999999999e-08,0.0,0.0,0.0,8.999999999999999e-08
1728578979.763504,34881,1728578979,749970240,base_link,0.0014602521877000695,0.00013632040194806695,-0.7069229225371302,-0.7072890715060278,1.0,0.0,0.0,0.0,1.0,0.0,0.0,0.0,1.0,-0.0004574937338475138,0.0009608706459403038,0.0003978913009632378,1.2184696791468346e-07,0.0,0.0,0.0,1.2184696791468346e-07,0.0,0.0,0.0,1.2184696791468346e-07,0.0,0.0,0.0,-1.0,0.0,0.0,0.0,8.999999999999999e-08,0.0,0.0,0.0,8.999999999999999e-08
1728578979.7810366,34882,1728578979,770970240,base_link,0.0014644331381020576,0.00012119311098547731,-0.706920016783129,-0.7072919698534366,1.0,0.0,0.0,0.0,1.0,0.0,0.0,0.0,1.0,0.0002144954341929406,0.001204648637212813,-0.0002664421335794033,1.2184696791468346e-07,0.0,0.0,0.0,1.2184696791468346e-07,0.0,0.0,0.0,1.2184696791468346e-07,0.0,0.0,0.0,-1.0,0.0,0.0,0.0,8.999999999999999e-08,0.0,0.0,0.0,8.999999999999999e-08
1728578979.8015747,34883,1728578979,791139968,base_link,0.0014569554880167618,0.00012422525627204313,-0.7069239533111535,-0.7072880502904894,1.0,0.0,0.0,0.0,1.0,0.0,0.0,0.0,1.0,0.0010123933898285031,-0.00041003158548846835,0.000440269970567897,1.2184696791468346e-07,0.0,0.0,0.0,1.2184696791468346e-07,0.0,0.0,0.0,1.2184696791468346e-07,0.0,0.0,0.0,-1.0,0.0,0.0,0.0,8.999999999999999e-08,0.0,0.0,0.0,8.999999999999999e-08
1728578979.82276,34884,1728578979,810139968,base_link,0.0014620184544366524,0.00012862901671388275,-0.706918886422063,-0.7072931033004671,1.0,0.0,0.0,0.0,1.0,0.0,0.0,0.0,1.0,-0.0011347233084961772,-5.294394213706261e-05,-0.0004983397084288299,1.2184696791468346e-07,0.0,0.0,0.0,1.2184696791468346e-07,0.0,0.0,0.0,1.2184696791468346e-07,0.0,0.0,0.0,-1.0,0.0,0.0,0.0,8.999999999999999e-08,0.0,0.0,0.0,8.999999999999999e-08
1728578979.8424752,34885,1728578979,830139968,base_link,0.0014549263252435088,0.00013205063340495092,-0.7069111587722382,-0.707300840770962,1.0,0.0,0.0,0.0,1.0,0.0,0.0,0.0,1.0,0.00033292887383140624,-0.000574353849515319,-0.0007375247078016399,1.2184696791468346e-07,0.0,0.0,0.0,1.2184696791468346e-07,0.0,0.0,0.0,1.2184696791468346e-07,0.0,0.0,0.0,-1.0,0.0,0.0,0.0,8.999999999999999e-08,0.0,0.0,0.0,8.999999999999999e-08
1728578979.8638246,34886,1728578979,850139968,base_link,0.0014554608146521738,0.00013551738960446133,-0.7069071558930322,-0.7073048396668006,1.0,0.0,0.0,0.0,1.0,0.0,0.0,0.0,1.0,-0.0001974200422409922,7.784343324601623e-06,-0.0002167539787478745,1.2184696791468346e-07,0.0,0.0,0.0,1.2184696791468346e-07,0.0,0.0,0.0,1.2184696791468346e-07,0.0,0.0,0.0,-1.0,0.0,0.0,0.0,8.999999999999999e-08,0.0,0.0,0.0,8.999999999999999e-08
1728578979.8817325,34887,1728578979,871139968,base_link,0.001465182296542885,0.00013912983752937863,-0.7069086397421582,-0.7073033358762121,1.0,0.0,0.0,0.0,1.0,0.0,0.0,0.0,1.0,-0.0005945208831690252,2.7038273401558406e-05,4.445525701157749e-05,1.2184696791468346e-07,0.0,0.0,0.0,1.2184696791468346e-07,0.0,0.0,0.0,1.2184696791468346e-07,0.0,0.0,0.0,-1.0,0.0,0.0,0.0,8.999999999999999e-08,0.0,0.0,0.0,8.999999999999999e-08
1728578979.9263685,34888,1728578979,891309440,base_link,0.001484902804462901,0.00013972959017873626,-0.7069039699795416,-0.7073079617581483,1.0,0.0,0.0,0.0,1.0,0.0,0.0,0.0,1.0,-0.0013708819169551134,0.0014677480794489384,-0.00020742660854011793,1.2184696791468346e-07,0.0,0.0,0.0,1.2184696791468346e-07,0.0,0.0,0.0,1.2184696791468346e-07,0.0,0.0,0.0,-1.0,0.0,0.0,0.0,8.999999999999999e-08,0.0,0.0,0.0,8.999999999999999e-08
1728578979.9338078,34889,1728578979,910309440,base_link,0.0014807002036307936,0.00014707267780513335,-0.7069066897010199,-0.70730525090125,1.0,0.0,0.0,0.0,1.0,0.0,0.0,0.0,1.0,-0.0003773830540012568,-0.00018070690566673872,0.00011169796925969425,1.2184696791468346e-07,0.0,0.0,0.0,1.2184696791468346e-07,0.0,0.0,0.0,1.2184696791468346e-07,0.0,0.0,0.0,-1.0,0.0,0.0,0.0,8.999999999999999e-08,0.0,0.0,0.0,8.999999999999999e-08
1728578979.94275,34890,1728578979,930309440,base_link,0.0014673082096837379,0.00015369917142830708,-0.7069116338617072,-0.7073003359918292,1.0,0.0,0.0,0.0,1.0,0.0,0.0,0.0,1.0,0.0005494080833159387,-0.0013130499282851815,0.00041785667417570965,1.2184696791468346e-07,0.0,0.0,0.0,1.2184696791468346e-07,0.0,0.0,0.0,1.2184696791468346e-07,0.0,0.0,0.0,-1.0,0.0,0.0,0.0,8.999999999999999e-08,0.0,0.0,0.0,8.999999999999999e-08
1728578979.9635816,34891,1728578979,950309440,base_link,0.0014721250330119227,0.00015574918868454304,-0.7069011820877424,-0.7073107714102972,1.0,0.0,0.0,0.0,1.0,0.0,0.0,0.0,1.0,-0.000392241490771994,-0.0004912902368232609,-0.001258019357919693,1.2184696791468346e-07,0.0,0.0,0.0,1.2184696791468346e-07,0.0,0.0,0.0,1.2184696791468346e-07,0.0,0.0,0.0,-1.0,0.0,0.0,0.0,8.999999999999999e-08,0.0,0.0,0.0,8.999999999999999e-08
1728578979.982423,34892,1728578979,971309440,base_link,0.001480737103110229,0.0001516455143518536,-0.7069003560066648,-0.7073115799270644,1.0,0.0,0.0,0.0,1.0,0.0,0.0,0.0,1.0,-0.00018699088832363486,0.0011918996460735798,-0.0002927139285020532,1.2184696791468346e-07,0.0,0.0,0.0,1.2184696791468346e-07,0.0,0.0,0.0,1.2184696791468346e-07,0.0,0.0,0.0,-1.0,0.0,0.0,0.0,8.999999999999999e-08,0.0,0.0,0.0,8.999999999999999e-08
1728578980.001203,34893,1728578979,990480960,base_link,0.0014855455793193464,0.00015032845444626334,-0.7069026061989605,-0.7073093212342142,1.0,0.0,0.0,0.0,1.0,0.0,0.0,0.0,1.0,-0.0008317084284499288,0.00047437261673621833,6.474964902736241e-05,1.2184696791468346e-07,0.0,0.0,0.0,1.2184696791468346e-07,0.0,0.0,0.0,1.2184696791468346e-07,0.0,0.0,0.0,-1.0,0.0,0.0,0.0,8.999999999999999e-08,0.0,0.0,0.0,8.999999999999999e-08
1728578980.0215614,34894,1728578980,11480960,base_link,0.0014935776824782907,0.00014760318245498282,-0.7068995488085192,-0.7073123605121848,1.0,0.0,0.0,0.0,1.0,0.0,0.0,0.0,1.0,-0.000509095611050725,0.001392676611430943,-0.00012869038619101064,1.2184696791468346e-07,0.0,0.0,0.0,1.2184696791468346e-07,0.0,0.0,0.0,1.2184696791468346e-07,0.0,0.0,0.0,-1.0,0.0,0.0,0.0,8.999999999999999e-08,0.0,0.0,0.0,8.999999999999999e-08
1728578980.0418873,34895,1728578980,30480960,base_link,0.0014939145075140462,0.0001512341238357948,-0.7068938529324842,-0.7073180515397238,1.0,0.0,0.0,0.0,1.0,0.0,0.0,0.0,1.0,-4.5305798266781494e-05,-0.0007987048593349756,-0.0006946331704966723,1.2184696791468346e-07,0.0,0.0,0.0,1.2184696791468346e-07,0.0,0.0,0.0,1.2184696791468346e-07,0.0,0.0,0.0,-1.0,0.0,0.0,0.0,8.999999999999999e-08,0.0,0.0,0.0,8.999999999999999e-08
1728578980.0670795,34896,1728578980,50480960,base_link,0.0015151628851374655,0.00015148311140923595,-0.7068888728907061,-0.7073229833093263,1.0,0.0,0.0,0.0,1.0,0.0,0.0,0.0,1.0,-0.0013662002747878432,0.0014517829986289144,-0.0007188948802649977,1.2184696791468346e-07,0.0,0.0,0.0,1.2184696791468346e-07,0.0,0.0,0.0,1.2184696791468346e-07,0.0,0.0,0.0,-1.0,0.0,0.0,0.0,8.999999999999999e-08,0.0,0.0,0.0,8.999999999999999e-08
1728578980.082124,34897,1728578980,71480960,base_link,0.0015109988441421441,0.0001527851815991026,-0.7068880235034951,-0.7073238408017247,1.0,0.0,0.0,0.0,1.0,0.0,0.0,0.0,1.0,-0.00011608701606746763,9.108333324547852e-05,-0.00041376976878382266,1.2184696791468346e-07,0.0,0.0,0.0,1.2184696791468346e-07,0.0,0.0,0.0,1.2184696791468346e-07,0.0,0.0,0.0,-1.0,0.0,0.0,0.0,8.999999999999999e-08,0.0,0.0,0.0,8.999999999999999e-08
1728578980.1011667,34898,1728578980,90652224,base_link,0.0014913434251737257,0.00015162244247731476,-0.7068980653021605,-0.7073138470138174,1.0,0.0,0.0,0.0,1.0,0.0,0.0,0.0,1.0,0.0011840310180559754,-0.000981818535365164,0.0015698518836870792,1.2184696791468346e-07,0.0,0.0,0.0,1.2184696791468346e-07,0.0,0.0,0.0,1.2184696791468346e-07,0.0,0.0,0.0,-1.0,0.0,0.0,0.0,8.999999999999999e-08,0.0,0.0,0.0,8.999999999999999e-08
1728578980.1467972,34899,1728578980,110652224,base_link,0.0014887087693562127,0.00015095916476783372,-0.7069117176080673,-0.7073002081619534,1.0,0.0,0.0,0.0,1.0,0.0,0.0,0.0,1.0,0.0007975187618285418,-0.0006388080073520539,0.0019635402131825686,1.2184696791468346e-07,0.0,0.0,0.0,1.2184696791468346e-07,0.0,0.0,0.0,1.2184696791468346e-07,0.0,0.0,0.0,-1.0,0.0,0.0,0.0,8.999999999999999e-08,0.0,0.0,0.0,8.999999999999999e-08
1728578980.1547778,34900,1728578980,130652224,base_link,0.0014987462120400693,0.00015152516149355885,-0.7069066421628187,-0.7073052594644026,1.0,0.0,0.0,0.0,1.0,0.0,0.0,0.0,1.0,-0.0006814758526161313,0.000601400388404727,-0.00037471749237738555,1.2184696791468346e-07,0.0,0.0,0.0,1.2184696791468346e-07,0.0,0.0,0.0,1.2184696791468346e-07,0.0,0.0,0.0,-1.0,0.0,0.0,0.0,8.999999999999999e-08,0.0,0.0,0.0,8.999999999999999e-08
1728578980.1637912,34901,1728578980,150652224,base_link,0.0014810102331592582,0.00015016394021999556,-0.7069114747042949,-0.7073004672632976,1.0,0.0,0.0,0.0,1.0,0.0,0.0,0.0,1.0,0.0010421155020594597,-0.0006058482686057686,0.0007306738989427687,1.2184696791468346e-07,0.0,0.0,0.0,1.2184696791468346e-07,0.0,0.0,0.0,1.2184696791468346e-07,0.0,0.0,0.0,-1.0,0.0,0.0,0.0,8.999999999999999e-08,0.0,0.0,0.0,8.999999999999999e-08
1728578980.1823473,34902,1728578980,171652224,base_link,0.0014697432147933176,0.0001507572443117025,-0.7069153435632208,-0.7072966238870573,1.0,0.0,0.0,0.0,1.0,0.0,0.0,0.0,1.0,0.0007544511463493109,-0.0009335869690403341,0.000647562905214727,1.2184696791468346e-07,0.0,0.0,0.0,1.2184696791468346e-07,0.0,0.0,0.0,1.2184696791468346e-07,0.0,0.0,0.0,-1.0,0.0,0.0,0.0,8.999999999999999e-08,0.0,0.0,0.0,8.999999999999999e-08
1728578980.2023952,34903,1728578980,190824256,base_link,0.0014715059441688242,0.00015375210465925715,-0.7069138933374298,-0.7072980690183335,1.0,0.0,0.0,0.0,1.0,0.0,0.0,0.0,1.0,-9.960309398593381e-05,0.0003392570069991052,-9.345135185867552e-05,1.2184696791468346e-07,0.0,0.0,0.0,1.2184696791468346e-07,0.0,0.0,0.0,1.2184696791468346e-07,0.0,0.0,0.0,-1.0,0.0,0.0,0.0,8.999999999999999e-08,0.0,0.0,0.0,8.999999999999999e-08
1728578980.2224987,34904,1728578980,210824256,base_link,0.0014874695374455882,0.0001475143576009592,-0.7069222214836361,-0.7072897132339268,1.0,0.0,0.0,0.0,1.0,0.0,0.0,0.0,1.0,-0.0004905636887997389,0.001674255938269198,0.0008842814713716505,1.2184696791468346e-07,0.0,0.0,0.0,1.2184696791468346e-07,0.0,0.0,0.0,1.2184696791468346e-07,0.0,0.0,0.0,-1.0,0.0,0.0,0.0,8.999999999999999e-08,0.0,0.0,0.0,8.999999999999999e-08
1728578980.2425456,34905,1728578980,230824256,base_link,0.0014902326462428114,0.00014978628152418784,-0.7069256629286089,-0.7072862672664278,1.0,0.0,0.0,0.0,1.0,0.0,0.0,0.0,1.0,-0.0005699569010175765,0.0008252403931692244,0.0005523280706256627,1.2184696791468346e-07,0.0,0.0,0.0,1.2184696791468346e-07,0.0,0.0,0.0,1.2184696791468346e-07,0.0,0.0,0.0,-1.0,0.0,0.0,0.0,8.999999999999999e-08,0.0,0.0,0.0,8.999999999999999e-08
1728578980.2635546,34906,1728578980,250824256,base_link,0.0014957454981778695,0.000139491965119514,-0.7069213743858896,-0.7072905440649981,1.0,0.0,0.0,0.0,1.0,0.0,0.0,0.0,1.0,0.0003462643944658339,0.0005947937024757265,-0.0006035880651324988,1.2184696791468346e-07,0.0,0.0,0.0,1.2184696791468346e-07,0.0,0.0,0.0,1.2184696791468346e-07,0.0,0.0,0.0,-1.0,0.0,0.0,0.0,8.999999999999999e-08,0.0,0.0,0.0,8.999999999999999e-08
1728578980.2828512,34907,1728578980,271824256,base_link,0.001497218841033415,0.00014315999250676025,-0.7069187251762035,-0.7072931880318162,1.0,0.0,0.0,0.0,1.0,0.0,0.0,0.0,1.0,-0.0003962045593652874,0.0003022948512807488,-0.0006429991917684674,1.2184696791468346e-07,0.0,0.0,0.0,1.2184696791468346e-07,0.0,0.0,0.0,1.2184696791468346e-07,0.0,0.0,0.0,-1.0,0.0,0.0,0.0,8.999999999999999e-08,0.0,0.0,0.0,8.999999999999999e-08
1728578980.3024838,34908,1728578980,291996032,base_link,0.0014882419242514277,0.00015263967071279207,-0.7069166164753685,-0.7072953125732722,1.0,0.0,0.0,0.0,1.0,0.0,0.0,0.0,1.0,-0.00038338254671543837,-0.00128315354231745,-0.00031934637809172256,1.2184696791468346e-07,0.0,0.0,0.0,1.2184696791468346e-07,0.0,0.0,0.0,1.2184696791468346e-07,0.0,0.0,0.0,-1.0,0.0,0.0,0.0,8.999999999999999e-08,0.0,0.0,0.0,8.999999999999999e-08
1728578980.3227813,34909,1728578980,311996032,base_link,0.001498904562681265,0.00014859718377666927,-0.7069106619518182,-0.7073012422036534,1.0,0.0,0.0,0.0,1.0,0.0,0.0,0.0,1.0,-0.0004273446975275874,0.0013253431534394622,-0.0007624241989105941,1.2184696791468346e-07,0.0,0.0,0.0,1.2184696791468346e-07,0.0,0.0,0.0,1.2184696791468346e-07,0.0,0.0,0.0,-1.0,0.0,0.0,0.0,8.999999999999999e-08,0.0,0.0,0.0,8.999999999999999e-08
1728578980.3777428,34910,1728578980,330996032,base_link,0.001485031695419678,0.0001517790457558284,-0.7069178180203683,-0.7072941186022305,1.0,0.0,0.0,0.0,1.0,0.0,0.0,0.0,1.0,0.0006163126090541482,-0.0009026888292282819,0.0006478124414570631,1.2184696791468346e-07,0.0,0.0,0.0,1.2184696791468346e-07,0.0,0.0,0.0,1.2184696791468346e-07,0.0,0.0,0.0,-1.0,0.0,0.0,0.0,8.999999999999999e-08,0.0,0.0,0.0,8.999999999999999e-08
1728578980.386515,34911,1728578980,350996032,base_link,0.0014916750800394584,0.00014826628846579068,-0.7069039454927877,-0.7073079702430146,1.0,0.0,0.0,0.0,1.0,0.0,0.0,0.0,1.0,-0.00012190306733828038,0.0004816124564968048,-0.001435939921066165,1.2184696791468346e-07,0.0,0.0,0.0,1.2184696791468346e-07,0.0,0.0,0.0,1.2184696791468346e-07,0.0,0.0,0.0,-1.0,0.0,0.0,0.0,8.999999999999999e-08,0.0,0.0,0.0,8.999999999999999e-08
1728578980.3865356,34912,1728578980,371996032,base_link,0.0014856634226764224,0.00015191522454163629,-0.7069018415836433,-0.7073100848225002,1.0,0.0,0.0,0.0,1.0,0.0,0.0,0.0,1.0,3.546455263858661e-05,-0.0003485936613287777,-0.0003803048166446387,1.2184696791468346e-07,0.0,0.0,0.0,1.2184696791468346e-07,0.0,0.0,0.0,1.2184696791468346e-07,0.0,0.0,0.0,-1.0,0.0,0.0,0.0,8.999999999999999e-08,0.0,0.0,0.0,8.999999999999999e-08
1728578980.402537,34913,1728578980,391167296,base_link,0.0014825822913298334,0.00014812183173767775,-0.706905102539185,-0.707306833003709,1.0,0.0,0.0,0.0,1.0,0.0,0.0,0.0,1.0,0.0008169642533175647,0.0005416682688519359,0.00011946175072807812,1.2184696791468346e-07,0.0,0.0,0.0,1.2184696791468346e-07,0.0,0.0,0.0,1.2184696791468346e-07,0.0,0.0,0.0,-1.0,0.0,0.0,0.0,8.999999999999999e-08,0.0,0.0,0.0,8.999999999999999e-08
1728578980.4223514,34914,1728578980,411167296,base_link,0.001489770208278487,0.00014455504196315096,-0.7069069609643617,-0.7073049612640202,1.0,0.0,0.0,0.0,1.0,0.0,0.0,0.0,1.0,-0.0003155902086291462,0.0009126185905188322,0.00028868686058558513,1.2184696791468346e-07,0.0,0.0,0.0,1.2184696791468346e-07,0.0,0.0,0.0,1.2184696791468346e-07,0.0,0.0,0.0,-1.0,0.0,0.0,0.0,8.999999999999999e-08,0.0,0.0,0.0,8.999999999999999e-08
1728578980.442433,34915,1728578980,431167296,base_link,0.001478119123138401,0.00015242709608682015,-0.7069087610464837,-0.707303184981917,1.0,0.0,0.0,0.0,1.0,0.0,0.0,0.0,1.0,0.00026124928263016045,-0.0007733262609690428,0.00033907953184098016,1.2184696791468346e-07,0.0,0.0,0.0,1.2184696791468346e-07,0.0,0.0,0.0,1.2184696791468346e-07,0.0,0.0,0.0,-1.0,0.0,0.0,0.0,8.999999999999999e-08,0.0,0.0,0.0,8.999999999999999e-08
1728578980.4642594,34916,1728578980,452167296,base_link,0.001469571609357172,0.00014928620629659943,-0.7069090546418559,-0.7073029100309646,1.0,0.0,0.0,0.0,1.0,0.0,0.0,0.0,1.0,0.0006920222076587379,-0.00021452640066854653,0.0002511326165404171,1.2184696791468346e-07,0.0,0.0,0.0,1.2184696791468346e-07,0.0,0.0,0.0,1.2184696791468346e-07,0.0,0.0,0.0,-1.0,0.0,0.0,0.0,8.999999999999999e-08,0.0,0.0,0.0,8.999999999999999e-08
1728578980.4824955,34917,1728578980,472167296,base_link,0.0014712172672050297,0.00015137254797156343,-0.706905827578822,-0.7073061314177936,1.0,0.0,0.0,0.0,1.0,0.0,0.0,0.0,1.0,-0.0003680449153762311,-7.532307063229385e-05,-0.000218838918954134,1.2184696791468346e-07,0.0,0.0,0.0,1.2184696791468346e-07,0.0,0.0,0.0,1.2184696791468346e-07,0.0,0.0,0.0,-1.0,0.0,0.0,0.0,8.999999999999999e-08,0.0,0.0,0.0,8.999999999999999e-08
1728578980.5127168,34918,1728578980,491337792,base_link,0.0014718071895506815,0.00014315256333867043,-0.7069014636905079,-0.7073104932935448,1.0,0.0,0.0,0.0,1.0,0.0,0.0,0.0,1.0,0.00028724808362312615,0.0008777814800851046,-0.0006481563323177398,1.2184696791468346e-07,0.0,0.0,0.0,1.2184696791468346e-07,0.0,0.0,0.0,1.2184696791468346e-07,0.0,0.0,0.0,-1.0,0.0,0.0,0.0,8.999999999999999e-08,0.0,0.0,0.0,8.999999999999999e-08
1728578980.5229998,34919,1728578980,511337792,base_link,0.0014562192218618608,0.00014989515167084457,-0.7068994631627747,-0.7073125235263421,1.0,0.0,0.0,0.0,1.0,0.0,0.0,0.0,1.0,0.0006529918755404651,-0.0015861692372709513,-0.0001121229142881928,1.2184696791468346e-07,0.0,0.0,0.0,1.2184696791468346e-07,0.0,0.0,0.0,1.2184696791468346e-07,0.0,0.0,0.0,-1.0,0.0,0.0,0.0,8.999999999999999e-08,0.0,0.0,0.0,8.999999999999999e-08
1728578980.5420039,34920,1728578980,532337792,base_link,0.0014513123593893939,0.000157187107068578,-0.7068945354006703,-0.7073174568786771,1.0,0.0,0.0,0.0,1.0,0.0,0.0,0.0,1.0,-0.00023187394253909588,-0.0009301684913225473,-0.0004684064770117401,1.2184696791468346e-07,0.0,0.0,0.0,1.2184696791468346e-07,0.0,0.0,0.0,1.2184696791468346e-07,0.0,0.0,0.0,-1.0,0.0,0.0,0.0,8.999999999999999e-08,0.0,0.0,0.0,8.999999999999999e-08
1728578980.5636044,34921,1728578980,551337792,base_link,0.0014429281926742748,0.00015787269523402439,-0.7068936459213887,-0.7073183628256863,1.0,0.0,0.0,0.0,1.0,0.0,0.0,0.0,1.0,0.0003341084229759872,-0.000631661037914455,-0.0005832473398186265,1.2184696791468346e-07,0.0,0.0,0.0,1.2184696791468346e-07,0.0,0.0,0.0,1.2184696791468346e-07,0.0,0.0,0.0,-1.0,0.0,0.0,0.0,8.999999999999999e-08,0.0,0.0,0.0,8.999999999999999e-08
1728578980.5821,34922,1728578980,572337792,base_link,0.0014440029034466365,0.00017122760714365152,-0.706891361620301,-0.7073206404476814,1.0,0.0,0.0,0.0,1.0,0.0,0.0,0.0,1.0,-0.0007087989943102002,-0.0012037107953801751,-5.6310411309823245e-05,1.2184696791468346e-07,0.0,0.0,0.0,1.2184696791468346e-07,0.0,0.0,0.0,1.2184696791468346e-07,0.0,0.0,0.0,-1.0,0.0,0.0,0.0,8.999999999999999e-08,0.0,0.0,0.0,8.999999999999999e-08
1728578980.602189,34923,1728578980,591507776,base_link,0.0014423389475739013,0.00016708675270635793,-0.7068908271564094,-0.7073211789721164,1.0,0.0,0.0,0.0,1.0,0.0,0.0,0.0,1.0,-1.4281392395787407e-05,0.0006967708468437195,-0.00016042779316194364,1.2184696791468346e-07,0.0,0.0,0.0,1.2184696791468346e-07,0.0,0.0,0.0,1.2184696791468346e-07,0.0,0.0,0.0,-1.0,0.0,0.0,0.0,8.999999999999999e-08,0.0,0.0,0.0,8.999999999999999e-08
1728578980.6231048,34924,1728578980,611507776,base_link,0.0014281481565707663,0.0001593867199987319,-0.7068826482649928,-0.7073293833643467,1.0,0.0,0.0,0.0,1.0,0.0,0.0,0.0,1.0,0.0012266241246834397,-5.371132283471536e-05,-0.000939693592954427,1.2184696791468346e-07,0.0,0.0,0.0,1.2184696791468346e-07,0.0,0.0,0.0,1.2184696791468346e-07,0.0,0.0,0.0,-1.0,0.0,0.0,0.0,8.999999999999999e-08,0.0,0.0,0.0,8.999999999999999e-08
1728578980.6422048,34925,1728578980,631507776,base_link,0.0014219076068924007,0.00016447952920395402,-0.7068847532223119,-0.7073272911369058,1.0,0.0,0.0,0.0,1.0,0.0,0.0,0.0,1.0,-5.871882603969425e-05,-0.0006881498848088086,0.00013005400251131513,1.2184696791468346e-07,0.0,0.0,0.0,1.2184696791468346e-07,0.0,0.0,0.0,1.2184696791468346e-07,0.0,0.0,0.0,-1.0,0.0,0.0,0.0,8.999999999999999e-08,0.0,0.0,0.0,8.999999999999999e-08
1728578980.6633554,34926,1728578980,652507776,base_link,0.0014081297168682982,0.0001724474850366579,-0.7068889773872764,-0.7073230952548745,1.0,0.0,0.0,0.0,1.0,0.0,0.0,0.0,1.0,0.0004984132247045636,-0.0011148088378831744,0.000646474538370967,1.2184696791468346e-07,0.0,0.0,0.0,1.2184696791468346e-07,0.0,0.0,0.0,1.2184696791468346e-07,0.0,0.0,0.0,-1.0,0.0,0.0,0.0,8.999999999999999e-08,0.0,0.0,0.0,8.999999999999999e-08
1728578980.6832798,34927,1728578980,672507776,base_link,0.0014019130946391549,0.00017868165497959796,-0.7068938541200812,-0.7073182322828946,1.0,0.0,0.0,0.0,1.0,0.0,0.0,0.0,1.0,0.00017430688603781164,-0.0012351954355835912,0.0011068499879911544,1.2184696791468346e-07,0.0,0.0,0.0,1.2184696791468346e-07,0.0,0.0,0.0,1.2184696791468346e-07,0.0,0.0,0.0,-1.0,0.0,0.0,0.0,8.999999999999999e-08,0.0,0.0,0.0,8.999999999999999e-08
1728578980.702854,34928,1728578980,692677504,base_link,0.0014111843350688453,0.0001688396157141406,-0.7068886079022092,-0.7073234592956982,1.0,0.0,0.0,0.0,1.0,0.0,0.0,0.0,1.0,2.466796649969183e-05,0.0014488156884908676,-0.0008082308922894301,1.2184696791468346e-07,0.0,0.0,0.0,1.2184696791468346e-07,0.0,0.0,0.0,1.2184696791468346e-07,0.0,0.0,0.0,-1.0,0.0,0.0,0.0,8.999999999999999e-08,0.0,0.0,0.0,8.999999999999999e-08
1728578980.724194,34929,1728578980,711677504,base_link,0.0014109314735204035,0.00016333821987058744,-0.7068925745529385,-0.7073194968576233,1.0,0.0,0.0,0.0,1.0,0.0,0.0,0.0,1.0,0.0004456288879737258,0.00041539216181263333,0.000447733502369374,1.2184696791468346e-07,0.0,0.0,0.0,1.2184696791468346e-07,0.0,0.0,0.0,1.2184696791468346e-07,0.0,0.0,0.0,-1.0,0.0,0.0,0.0,8.999999999999999e-08,0.0,0.0,0.0,8.999999999999999e-08
1728578980.7424033,34930,1728578980,731677504,base_link,0.0014144307328279539,0.00016738714391074415,-0.7068931997815237,-0.7073188640704311,1.0,0.0,0.0,0.0,1.0,0.0,0.0,0.0,1.0,-0.00028813359676860273,0.0004290943616069854,0.0002332989679416641,1.2184696791468346e-07,0.0,0.0,0.0,1.2184696791468346e-07,0.0,0.0,0.0,1.2184696791468346e-07,0.0,0.0,0.0,-1.0,0.0,0.0,0.0,8.999999999999999e-08,0.0,0.0,0.0,8.999999999999999e-08
1728578980.7634728,34931,1728578980,751677504,base_link,0.0013937223083100292,0.00016911281082270627,-0.7068948469952324,-0.7073172585414351,1.0,0.0,0.0,0.0,1.0,0.0,0.0,0.0,1.0,0.0009198928601108491,-0.0013973867753520608,8.047281880863029e-05,1.2184696791468346e-07,0.0,0.0,0.0,1.2184696791468346e-07,0.0,0.0,0.0,1.2184696791468346e-07,0.0,0.0,0.0,-1.0,0.0,0.0,0.0,8.999999999999999e-08,0.0,0.0,0.0,8.999999999999999e-08
1728578980.7830734,34932,1728578980,772677504,base_link,0.0013824647640880933,0.00016466505426434853,-0.7068965187301116,-0.707315610943124,1.0,0.0,0.0,0.0,1.0,0.0,0.0,0.0,1.0,0.0015786393778398633,-0.0006571331759914756,0.0003689992590807379,1.2184696791468346e-07,0.0,0.0,0.0,1.2184696791468346e-07,0.0,0.0,0.0,1.2184696791468346e-07,0.0,0.0,0.0,-1.0,0.0,0.0,0.0,8.999999999999999e-08,0.0,0.0,0.0,8.999999999999999e-08
1728578980.8030138,34933,1728578980,792846720,base_link,0.0013808744074419138,0.00016992990196151338,-0.7069029114430667,-0.7073092238215298,1.0,0.0,0.0,0.0,1.0,0.0,0.0,0.0,1.0,-3.444950561970472e-05,-0.0007103494135662912,0.0006210546707734467,1.2184696791468346e-07,0.0,0.0,0.0,1.2184696791468346e-07,0.0,0.0,0.0,1.2184696791468346e-07,0.0,0.0,0.0,-1.0,0.0,0.0,0.0,8.999999999999999e-08,0.0,0.0,0.0,8.999999999999999e-08
1728578980.8230007,34934,1728578980,811846720,base_link,0.0013827845462870232,0.0001708242193811384,-0.7069079161016776,-0.7073042180552639,1.0,0.0,0.0,0.0,1.0,0.0,0.0,0.0,1.0,-8.179887663573027e-05,0.00010716302494984126,0.00039568531792610884,1.2184696791468346e-07,0.0,0.0,0.0,1.2184696791468346e-07,0.0,0.0,0.0,1.2184696791468346e-07,0.0,0.0,0.0,-1.0,0.0,0.0,0.0,8.999999999999999e-08,0.0,0.0,0.0,8.999999999999999e-08
1728578980.8443499,34935,1728578980,831846720,base_link,0.0013867658302523333,0.00017980590566728656,-0.706895617482038,-0.7073164995495699,1.0,0.0,0.0,0.0,1.0,0.0,0.0,0.0,1.0,-0.001031622290611267,-3.225042019039406e-05,-0.0011088557075709105,1.2184696791468346e-07,0.0,0.0,0.0,1.2184696791468346e-07,0.0,0.0,0.0,1.2184696791468346e-07,0.0,0.0,0.0,-1.0,0.0,0.0,0.0,8.999999999999999e-08,0.0,0.0,0.0,8.999999999999999e-08
1728578980.8642752,34936,1728578980,851846720,base_link,0.0013875971811511377,0.0001740327493446707,-0.7068928788336215,-0.7073192363713715,1.0,0.0,0.0,0.0,1.0,0.0,0.0,0.0,1.0,0.00026294367853552103,0.00029782828642055387,-0.0006020169239491224,1.2184696791468346e-07,0.0,0.0,0.0,1.2184696791468346e-07,0.0,0.0,0.0,1.2184696791468346e-07,0.0,0.0,0.0,-1.0,0.0,0.0,0.0,8.999999999999999e-08,0.0,0.0,0.0,8.999999999999999e-08
1728578980.8833156,34937,1728578980,872846720,base_link,0.001376408680169966,0.0001852984561713671,-0.7069002673429551,-0.7073118712379185,1.0,0.0,0.0,0.0,1.0,0.0,0.0,0.0,1.0,-0.0001734680263325572,-0.0009580881451256572,0.0011075771180912854,1.2184696791468346e-07,0.0,0.0,0.0,1.2184696791468346e-07,0.0,0.0,0.0,1.2184696791468346e-07,0.0,0.0,0.0,-1.0,0.0,0.0,0.0,8.999999999999999e-08,0.0,0.0,0.0,8.999999999999999e-08
1728578980.9038424,34938,1728578980,893017216,base_link,0.001371891758837441,0.00018984412957471862,-0.7068977546974095,-0.7073143899822549,1.0,0.0,0.0,0.0,1.0,0.0,0.0,0.0,1.0,-0.0003197982150595635,-0.0006556187872774899,-0.00017053572810254983,1.2184696791468346e-07,0.0,0.0,0.0,1.2184696791468346e-07,0.0,0.0,0.0,1.2184696791468346e-07,0.0,0.0,0.0,-1.0,0.0,0.0,0.0,8.999999999999999e-08,0.0,0.0,0.0,8.999999999999999e-08
1728578980.923313,34939,1728578980,912017216,base_link,0.0013736067870391833,0.00018349498959128275,-0.7068949074531308,-0.7073172338850603,1.0,0.0,0.0,0.0,1.0,0.0,0.0,0.0,1.0,0.0006646506953984499,0.0005895551294088364,-0.00026312627596780663,1.2184696791468346e-07,0.0,0.0,0.0,1.2184696791468346e-07,0.0,0.0,0.0,1.2184696791468346e-07,0.0,0.0,0.0,-1.0,0.0,0.0,0.0,8.999999999999999e-08,0.0,0.0,0.0,8.999999999999999e-08
1728578980.9636965,34940,1728578980,932017216,base_link,0.0013716632092071884,0.00019126002079287335,-0.7068994280638018,-0.7073127176593921,1.0,0.0,0.0,0.0,1.0,0.0,0.0,0.0,1.0,-0.0004700040153693408,-0.00019326765323057763,0.0007741844747215509,1.2184696791468346e-07,0.0,0.0,0.0,1.2184696791468346e-07,0.0,0.0,0.0,1.2184696791468346e-07,0.0,0.0,0.0,-1.0,0.0,0.0,0.0,8.999999999999999e-08,0.0,0.0,0.0,8.999999999999999e-08
1728578980.971878,34941,1728578980,952017216,base_link,0.0013661507900124146,0.00020070465310223384,-0.7069059797141126,-0.7073061778283091,1.0,0.0,0.0,0.0,1.0,0.0,0.0,0.0,1.0,-0.000532835372723639,-0.0010436811717227101,0.0007226949092000724,1.2184696791468346e-07,0.0,0.0,0.0,1.2184696791468346e-07,0.0,0.0,0.0,1.2184696791468346e-07,0.0,0.0,0.0,-1.0,0.0,0.0,0.0,8.999999999999999e-08,0.0,0.0,0.0,8.999999999999999e-08
1728578980.983399,34942,1728578980,973017216,base_link,0.001361561088351647,0.00019679852375157464,-0.7069054891929986,-0.7073066780191963,1.0,0.0,0.0,0.0,1.0,0.0,0.0,0.0,1.0,0.0006279494846239686,-0.00011058794916607438,0.00014877277135383338,1.2184696791468346e-07,0.0,0.0,0.0,1.2184696791468346e-07,0.0,0.0,0.0,1.2184696791468346e-07,0.0,0.0,0.0,-1.0,0.0,0.0,0.0,8.999999999999999e-08,0.0,0.0,0.0,8.999999999999999e-08
1728578981.003432,34943,1728578980,992186944,base_link,0.001351767162946104,0.00019445001896865798,-0.7069080958158013,-0.7073040923003382,1.0,0.0,0.0,0.0,1.0,0.0,0.0,0.0,1.0,0.0009624094236642122,0.00023900535597931594,5.121907452121374e-05,1.2184696791468346e-07,0.0,0.0,0.0,1.2184696791468346e-07,0.0,0.0,0.0,1.2184696791468346e-07,0.0,0.0,0.0,-1.0,0.0,0.0,0.0,8.999999999999999e-08,0.0,0.0,0.0,8.999999999999999e-08
1728578981.0234807,34944,1728578981,12186944,base_link,0.0013496385178340918,0.00020993309684102227,-0.706910213861528,-0.7073019750730339,1.0,0.0,0.0,0.0,1.0,0.0,0.0,0.0,1.0,-0.0008278937311843038,-0.0014008908765390515,0.0007119956426322462,1.2184696791468346e-07,0.0,0.0,0.0,1.2184696791468346e-07,0.0,0.0,0.0,1.2184696791468346e-07,0.0,0.0,0.0,-1.0,0.0,0.0,0.0,8.999999999999999e-08,0.0,0.0,0.0,8.999999999999999e-08
1728578981.0435247,34945,1728578981,32186944,base_link,0.0013366457973344038,0.00020884886695277853,-0.7069214054436117,-0.70729081450687,1.0,0.0,0.0,0.0,1.0,0.0,0.0,0.0,1.0,0.00065295968670398,-0.001214120304211974,0.001483205007389188,1.2184696791468346e-07,0.0,0.0,0.0,1.2184696791468346e-07,0.0,0.0,0.0,1.2184696791468346e-07,0.0,0.0,0.0,-1.0,0.0,0.0,0.0,8.999999999999999e-08,0.0,0.0,0.0,8.999999999999999e-08
1728578981.064729,34946,1728578981,52186944,base_link,0.0013337952307918115,0.00020491790047257136,-0.7069192036174144,-0.7072930217073097,1.0,0.0,0.0,0.0,1.0,0.0,0.0,0.0,1.0,0.0005751103744842112,0.0005143825546838343,-0.00024147814838215714,1.2184696791468346e-07,0.0,0.0,0.0,1.2184696791468346e-07,0.0,0.0,0.0,1.2184696791468346e-07,0.0,0.0,0.0,-1.0,0.0,0.0,0.0,8.999999999999999e-08,0.0,0.0,0.0,8.999999999999999e-08
1728578981.0831332,34947,1728578981,73186944,base_link,0.0013472284493920034,0.00020101200304525055,-0.7069193096265353,-0.7072928914154466,1.0,0.0,0.0,0.0,1.0,0.0,0.0,0.0,1.0,-0.00025865883799269795,0.0011830683797597885,0.00033179679303430005,1.2184696791468346e-07,0.0,0.0,0.0,1.2184696791468346e-07,0.0,0.0,0.0,1.2184696791468346e-07,0.0,0.0,0.0,-1.0,0.0,0.0,0.0,8.999999999999999e-08,0.0,0.0,0.0,8.999999999999999e-08
1728578981.103592,34948,1728578981,92355904,base_link,0.0013533298417672188,0.0002025491295744507,-0.7069253609519537,-0.7072868311478303,1.0,0.0,0.0,0.0,1.0,0.0,0.0,0.0,1.0,-0.0009172891732305288,0.0007304344326257707,0.0005706456140615045,1.2184696791468346e-07,0.0,0.0,0.0,1.2184696791468346e-07,0.0,0.0,0.0,1.2184696791468346e-07,0.0,0.0,0.0,-1.0,0.0,0.0,0.0,8.999999999999999e-08,0.0,0.0,0.0,8.999999999999999e-08
1728578981.1264539,34949,1728578981,112355904,base_link,0.0013535590338191207,0.00021449469350375878,-0.7069158701491167,-0.7072963130126478,1.0,0.0,0.0,0.0,1.0,0.0,0.0,0.0,1.0,-0.0009314595372416079,-0.0005035437061451377,-0.0008706278749741613,1.2184696791468346e-07,0.0,0.0,0.0,1.2184696791468346e-07,0.0,0.0,0.0,1.2184696791468346e-07,0.0,0.0,0.0,-1.0,0.0,0.0,0.0,8.999999999999999e-08,0.0,0.0,0.0,8.999999999999999e-08
1728578981.173435,34950,1728578981,132355904,base_link,0.001332385963540368,0.00022358332396866837,-0.7069223034728015,-0.7072899204787593,1.0,0.0,0.0,0.0,1.0,0.0,0.0,0.0,1.0,0.0008097128011286259,-0.0018944937037304044,0.0005380497896112504,1.2184696791468346e-07,0.0,0.0,0.0,1.2184696791468346e-07,0.0,0.0,0.0,1.2184696791468346e-07,0.0,0.0,0.0,-1.0,0.0,0.0,0.0,8.999999999999999e-08,0.0,0.0,0.0,8.999999999999999e-08
1728578981.1848123,34951,1728578981,152355904,base_link,0.001322546888036172,0.00023614549313740412,-0.7069274981278763,-0.7072847428693032,1.0,0.0,0.0,0.0,1.0,0.0,0.0,0.0,1.0,1.653909930610098e-05,-0.001757227932102978,0.0011592929949983957,1.2184696791468346e-07,0.0,0.0,0.0,1.2184696791468346e-07,0.0,0.0,0.0,1.2184696791468346e-07,0.0,0.0,0.0,-1.0,0.0,0.0,0.0,8.999999999999999e-08,0.0,0.0,0.0,8.999999999999999e-08
1728578981.184824,34952,1728578981,173355904,base_link,0.0013279741908051499,0.0002320651105532032,-0.7069296134056591,-0.7072826198348566,1.0,0.0,0.0,0.0,1.0,0.0,0.0,0.0,1.0,-0.0005953974323347211,0.000555366394110024,0.0003839302517008036,1.2184696791468346e-07,0.0,0.0,0.0,1.2184696791468346e-07,0.0,0.0,0.0,1.2184696791468346e-07,0.0,0.0,0.0,-1.0,0.0,0.0,0.0,8.999999999999999e-08,0.0,0.0,0.0,8.999999999999999e-08
1728578981.2039263,34953,1728578981,192524608,base_link,0.0013345025247982632,0.00023712515557341253,-0.7069328099151229,-0.7072794109403869,1.0,0.0,0.0,0.0,1.0,0.0,0.0,0.0,1.0,-0.0004035718156956136,-0.00031746027525514353,0.0007055536843836308,1.2184696791468346e-07,0.0,0.0,0.0,1.2184696791468346e-07,0.0,0.0,0.0,1.2184696791468346e-07,0.0,0.0,0.0,-1.0,0.0,0.0,0.0,8.999999999999999e-08,0.0,0.0,0.0,8.999999999999999e-08
1728578981.223605,34954,1728578981,212524608,base_link,0.0013329195597687046,0.0002390371585076995,-0.7069414707440173,-0.7072707565911163,1.0,0.0,0.0,0.0,1.0,0.0,0.0,0.0,1.0,0.00022879769676364958,0.00018895274843089301,0.0014797828625887632,1.2184696791468346e-07,0.0,0.0,0.0,1.2184696791468346e-07,0.0,0.0,0.0,1.2184696791468346e-07,0.0,0.0,0.0,-1.0,0.0,0.0,0.0,8.999999999999999e-08,0.0,0.0,0.0,8.999999999999999e-08
1728578981.2444198,34955,1728578981,232524608,base_link,0.0013392619386151468,0.00022955121951145416,-0.7069348134516041,-0.70727740188263,1.0,0.0,0.0,0.0,1.0,0.0,0.0,0.0,1.0,-0.00015185396478045732,0.0007589934393763541,-0.000503626884892583,1.2184696791468346e-07,0.0,0.0,0.0,1.2184696791468346e-07,0.0,0.0,0.0,1.2184696791468346e-07,0.0,0.0,0.0,-1.0,0.0,0.0,0.0,8.999999999999999e-08,0.0,0.0,0.0,8.999999999999999e-08
1728578981.2634428,34956,1728578981,252524608,base_link,0.001337172806405601,0.00024441784833020245,-0.7069307011120114,-0.7072815111778911,1.0,0.0,0.0,0.0,1.0,0.0,0.0,0.0,1.0,-0.0009738559019751847,-0.00047789813834242534,-0.0006762189441360532,1.2184696791468346e-07,0.0,0.0,0.0,1.2184696791468346e-07,0.0,0.0,0.0,1.2184696791468346e-07,0.0,0.0,0.0,-1.0,0.0,0.0,0.0,8.999999999999999e-08,0.0,0.0,0.0,8.999999999999999e-08
1728578981.3150961,34957,1728578981,273524608,base_link,0.0013536183403204827,0.00023458094994534143,-0.7069162113800534,-0.7072959654750182,1.0,0.0,0.0,0.0,1.0,0.0,0.0,0.0,1.0,-0.0006779755349270999,0.0018449729541316626,-0.001842642901465297,1.2184696791468346e-07,0.0,0.0,0.0,1.2184696791468346e-07,0.0,0.0,0.0,1.2184696791468346e-07,0.0,0.0,0.0,-1.0,0.0,0.0,0.0,8.999999999999999e-08,0.0,0.0,0.0,8.999999999999999e-08
1728578981.3251517,34958,1728578981,293692800,base_link,0.0013598739852594588,0.00023431024445402963,-0.7069215183364111,-0.7072906494181841,1.0,0.0,0.0,0.0,1.0,0.0,0.0,0.0,1.0,-0.0007560189696960151,0.0007370151579380035,0.00036213680868968357,1.2184696791468346e-07,0.0,0.0,0.0,1.2184696791468346e-07,0.0,0.0,0.0,1.2184696791468346e-07,0.0,0.0,0.0,-1.0,0.0,0.0,0.0,8.999999999999999e-08,0.0,0.0,0.0,8.999999999999999e-08
1728578981.344367,34959,1728578981,313692800,base_link,0.0013460644178146701,0.00022968609183252872,-0.7069276554971831,-0.7072845433403295,1.0,0.0,0.0,0.0,1.0,0.0,0.0,0.0,1.0,0.0012435632525011897,-0.00017942275735549615,0.0011116806417703629,1.2184696791468346e-07,0.0,0.0,0.0,1.2184696791468346e-07,0.0,0.0,0.0,1.2184696791468346e-07,0.0,0.0,0.0,-1.0,0.0,0.0,0.0,8.999999999999999e-08,0.0,0.0,0.0,8.999999999999999e-08
1728578981.3527808,34960,1728578981,332692800,base_link,0.0013440382400071974,0.0002308278319622559,-0.7069300649916203,-0.7072821385350154,1.0,0.0,0.0,0.0,1.0,0.0,0.0,0.0,1.0,0.00048298665205948055,-3.613808075897394e-05,0.00011917737720068544,1.2184696791468346e-07,0.0,0.0,0.0,1.2184696791468346e-07,0.0,0.0,0.0,1.2184696791468346e-07,0.0,0.0,0.0,-1.0,0.0,0.0,0.0,8.999999999999999e-08,0.0,0.0,0.0,8.999999999999999e-08
1728578981.3641431,34961,1728578981,352692800,base_link,0.0013593852076040048,0.00023182012782094403,-0.7069319916385062,-0.7072801831871868,1.0,0.0,0.0,0.0,1.0,0.0,0.0,0.0,1.0,-0.0009681917144916952,0.0009655616013333201,0.0003467449569143354,1.2184696791468346e-07,0.0,0.0,0.0,1.2184696791468346e-07,0.0,0.0,0.0,1.2184696791468346e-07,0.0,0.0,0.0,-1.0,0.0,0.0,0.0,8.999999999999999e-08,0.0,0.0,0.0,8.999999999999999e-08
1728578981.3843105,34962,1728578981,373692800,base_link,0.0013509240145090295,0.0002362071631035749,-0.7069280385902954,-0.707284149027363,1.0,0.0,0.0,0.0,1.0,0.0,0.0,0.0,1.0,2.558503911131993e-05,-6.608752300962854e-06,-0.00039665927761234343,1.2184696791468346e-07,0.0,0.0,0.0,1.2184696791468346e-07,0.0,0.0,0.0,1.2184696791468346e-07,0.0,0.0,0.0,-1.0,0.0,0.0,0.0,8.999999999999999e-08,0.0,0.0,0.0,8.999999999999999e-08
1728578981.405253,34963,1728578981,392862016,base_link,0.0013522649297231387,0.0002347319738670595,-0.7069285348443107,-0.7072836509515377,1.0,0.0,0.0,0.0,1.0,0.0,0.0,0.0,1.0,-0.00022449629614129663,-0.00029637158149853343,0.0004110683512408287,1.2184696791468346e-07,0.0,0.0,0.0,1.2184696791468346e-07,0.0,0.0,0.0,1.2184696791468346e-07,0.0,0.0,0.0,-1.0,0.0,0.0,0.0,8.999999999999999e-08,0.0,0.0,0.0,8.999999999999999e-08
1728578981.4242797,34964,1728578981,412862016,base_link,0.0013449555749233649,0.00024106772925262088,-0.7069337447690139,-0.7072784554103921,1.0,0.0,0.0,0.0,1.0,0.0,0.0,0.0,1.0,0.00033916367101483047,-0.0005648037185892462,0.0007062268559820951,1.2184696791468346e-07,0.0,0.0,0.0,1.2184696791468346e-07,0.0,0.0,0.0,1.2184696791468346e-07,0.0,0.0,0.0,-1.0,0.0,0.0,0.0,8.999999999999999e-08,0.0,0.0,0.0,8.999999999999999e-08
1728578981.4460835,34965,1728578981,432862016,base_link,0.0013385968039373699,0.00024160072503084818,-0.7069299141643139,-0.7072822960086883,1.0,0.0,0.0,0.0,1.0,0.0,0.0,0.0,1.0,0.0003802591818384826,-0.0003915123525075615,-0.00039537349948659534,1.2184696791468346e-07,0.0,0.0,0.0,1.2184696791468346e-07,0.0,0.0,0.0,1.2184696791468346e-07,0.0,0.0,0.0,-1.0,0.0,0.0,0.0,8.999999999999999e-08,0.0,0.0,0.0,8.999999999999999e-08
1728578981.464482,34966,1728578981,452862016,base_link,0.0013371734545025858,0.00024395386638434717,-0.7069437443977571,-0.7072684742801295,1.0,0.0,0.0,0.0,1.0,0.0,0.0,0.0,1.0,-0.0002054160286206752,-0.00023014648468233623,0.0017389472341164947,1.2184696791468346e-07,0.0,0.0,0.0,1.2184696791468346e-07,0.0,0.0,0.0,1.2184696791468346e-07,0.0,0.0,0.0,-1.0,0.0,0.0,0.0,8.999999999999999e-08,0.0,0.0,0.0,8.999999999999999e-08
1728578981.4845781,34967,1728578981,473862016,base_link,0.001317715914138914,0.00025125196338500087,-0.7069509360583445,-0.7072613198128757,1.0,0.0,0.0,0.0,1.0,0.0,0.0,0.0,1.0,0.0008815306355245411,-0.0014401926891878245,0.0012947407085448506,1.2184696791468346e-07,0.0,0.0,0.0,1.2184696791468346e-07,0.0,0.0,0.0,1.2184696791468346e-07,0.0,0.0,0.0,-1.0,0.0,0.0,0.0,8.999999999999999e-08,0.0,0.0,0.0,8.999999999999999e-08
1728578981.5044324,34968,1728578981,493033280,base_link,0.0013214948635275963,0.00025439863174866675,-0.7069503995733446,-0.7072618478864462,1.0,0.0,0.0,0.0,1.0,0.0,0.0,0.0,1.0,-0.00013391942775342613,0.00022325958707369867,0.0003124323557130992,1.2184696791468346e-07,0.0,0.0,0.0,1.2184696791468346e-07,0.0,0.0,0.0,1.2184696791468346e-07,0.0,0.0,0.0,-1.0,0.0,0.0,0.0,8.999999999999999e-08,0.0,0.0,0.0,8.999999999999999e-08
1728578981.5251784,34969,1728578981,513033280,base_link,0.0013254100173080263,0.0002491852468026058,-0.7069468125346047,-0.7072654278572941,1.0,0.0,0.0,0.0,1.0,0.0,0.0,0.0,1.0,-0.0004912184085696936,0.000701495911926031,-0.0007370891980826856,1.2184696791468346e-07,0.0,0.0,0.0,1.2184696791468346e-07,0.0,0.0,0.0,1.2184696791468346e-07,0.0,0.0,0.0,-1.0,0.0,0.0,0.0,8.999999999999999e-08,0.0,0.0,0.0,8.999999999999999e-08
1728578981.5444,34970,1728578981,533033280,base_link,0.0013183523514584362,0.0002487449247816898,-0.7069485606086706,-0.7072636939122272,1.0,0.0,0.0,0.0,1.0,0.0,0.0,0.0,1.0,0.0005038806702941656,-0.00023768865503370756,0.00034326451714150613,1.2184696791468346e-07,0.0,0.0,0.0,1.2184696791468346e-07,0.0,0.0,0.0,1.2184696791468346e-07,0.0,0.0,0.0,-1.0,0.0,0.0,0.0,8.999999999999999e-08,0.0,0.0,0.0,8.999999999999999e-08
1728578981.5658748,34971,1728578981,553033280,base_link,0.0013132201900718766,0.00024922259661651374,-0.7069399065741968,-0.7072723533644557,1.0,0.0,0.0,0.0,1.0,0.0,0.0,0.0,1.0,0.0007413910934701562,-0.00027286761905998,-0.0010291640646755695,1.2184696791468346e-07,0.0,0.0,0.0,1.2184696791468346e-07,0.0,0.0,0.0,1.2184696791468346e-07,0.0,0.0,0.0,-1.0,0.0,0.0,0.0,8.999999999999999e-08,0.0,0.0,0.0,8.999999999999999e-08
1728578981.584087,34972,1728578981,574033280,base_link,0.001313742031969878,0.00024209008549140623,-0.7069322743002383,-0.70727998347681,1.0,0.0,0.0,0.0,1.0,0.0,0.0,0.0,1.0,0.00035894507891498506,0.0007697485852986573,-0.001159460050985217,1.2184696791468346e-07,0.0,0.0,0.0,1.2184696791468346e-07,0.0,0.0,0.0,1.2184696791468346e-07,0.0,0.0,0.0,-1.0,0.0,0.0,0.0,8.999999999999999e-08,0.0,0.0,0.0,8.999999999999999e-08
1728578981.604661,34973,1728578981,594204288,base_link,0.0013246053866739103,0.00022606826630180947,-0.706930146001231,-0.70728209576405,1.0,0.0,0.0,0.0,1.0,0.0,0.0,0.0,1.0,0.00035073552862741053,0.0018514121184125543,-0.0002490049519110473,1.2184696791468346e-07,0.0,0.0,0.0,1.2184696791468346e-07,0.0,0.0,0.0,1.2184696791468346e-07,0.0,0.0,0.0,-1.0,0.0,0.0,0.0,8.999999999999999e-08,0.0,0.0,0.0,8.999999999999999e-08
1728578981.6241903,34974,1728578981,613204288,base_link,0.0013233924702795636,0.00023116777311585034,-0.7069256188864008,-0.7072866212193677,1.0,0.0,0.0,0.0,1.0,0.0,0.0,0.0,1.0,-0.0005072096828371286,4.402085323818025e-05,-0.0002350635768380016,1.2184696791468346e-07,0.0,0.0,0.0,1.2184696791468346e-07,0.0,0.0,0.0,1.2184696791468346e-07,0.0,0.0,0.0,-1.0,0.0,0.0,0.0,8.999999999999999e-08,0.0,0.0,0.0,8.999999999999999e-08
1728578981.6459608,34975,1728578981,633204288,base_link,0.0013226318249251697,0.00022527198199718445,-0.7069189095717009,-0.7072933303711744,1.0,0.0,0.0,0.0,1.0,0.0,0.0,0.0,1.0,0.0001431637501809746,-9.424294694326826e-05,-0.0006503378390334547,1.2184696791468346e-07,0.0,0.0,0.0,1.2184696791468346e-07,0.0,0.0,0.0,1.2184696791468346e-07,0.0,0.0,0.0,-1.0,0.0,0.0,0.0,8.999999999999999e-08,0.0,0.0,0.0,8.999999999999999e-08
1728578981.6642919,34976,1728578981,653204288,base_link,0.0013231106569268675,0.00022834960037640485,-0.7069212171618393,-0.7072910221125907,1.0,0.0,0.0,0.0,1.0,0.0,0.0,0.0,1.0,-0.00024694312014617026,5.177050479687757e-05,0.0005742156063206494,1.2184696791468346e-07,0.0,0.0,0.0,1.2184696791468346e-07,0.0,0.0,0.0,1.2184696791468346e-07,0.0,0.0,0.0,-1.0,0.0,0.0,0.0,8.999999999999999e-08,0.0,0.0,0.0,8.999999999999999e-08
1728578981.6843345,34977,1728578981,674204288,base_link,0.0013195449142410533,0.00021897696936795918,-0.7069336586871602,-0.7072785964989269,1.0,0.0,0.0,0.0,1.0,0.0,0.0,0.0,1.0,0.0008169817738234997,0.00025275230291299544,0.0016088271513581276,1.2184696791468346e-07,0.0,0.0,0.0,1.2184696791468346e-07,0.0,0.0,0.0,1.2184696791468346e-07,0.0,0.0,0.0,-1.0,0.0,0.0,0.0,8.999999999999999e-08,0.0,0.0,0.0,8.999999999999999e-08
1728578981.7047312,34978,1728578981,694376320,base_link,0.0013229357058308028,0.00022531290015861464,-0.7069366047124482,-0.7072756435738834,1.0,0.0,0.0,0.0,1.0,0.0,0.0,0.0,1.0,-0.00047723593888804317,0.00010589315206743782,0.00046459815348498523,1.2184696791468346e-07,0.0,0.0,0.0,1.2184696791468346e-07,0.0,0.0,0.0,1.2184696791468346e-07,0.0,0.0,0.0,-1.0,0.0,0.0,0.0,8.999999999999999e-08,0.0,0.0,0.0,8.999999999999999e-08
1728578981.7254126,34979,1728578981,713376320,base_link,0.0013285623105072485,0.00023027438420929254,-0.7069341736412439,-0.707278061326708,1.0,0.0,0.0,0.0,1.0,0.0,0.0,0.0,1.0,-0.0007335904520004988,0.00021812751947436482,-0.00010717078112065795,1.2184696791468346e-07,0.0,0.0,0.0,1.2184696791468346e-07,0.0,0.0,0.0,1.2184696791468346e-07,0.0,0.0,0.0,-1.0,0.0,0.0,0.0,8.999999999999999e-08,0.0,0.0,0.0,8.999999999999999e-08
1728578981.7576585,34980,1728578981,733376320,base_link,0.0013287034479523353,0.00023181905063566775,-0.706940703635265,-0.7072715336776616,1.0,0.0,0.0,0.0,1.0,0.0,0.0,0.0,1.0,-0.00024390513135585934,-7.814742275513698e-05,0.000864078348968178,1.2184696791468346e-07,0.0,0.0,0.0,1.2184696791468346e-07,0.0,0.0,0.0,1.2184696791468346e-07,0.0,0.0,0.0,-1.0,0.0,0.0,0.0,8.999999999999999e-08,0.0,0.0,0.0,8.999999999999999e-08
1728578981.7665427,34981,1728578981,753376320,base_link,0.0013148264751512775,0.0002167496036005526,-0.7069403870644052,-0.70727188081259,1.0,0.0,0.0,0.0,1.0,0.0,0.0,0.0,1.0,0.001757122459821403,0.00043922575423493987,0.00038443773519247765,1.2184696791468346e-07,0.0,0.0,0.0,1.2184696791468346e-07,0.0,0.0,0.0,1.2184696791468346e-07,0.0,0.0,0.0,-1.0,0.0,0.0,0.0,8.999999999999999e-08,0.0,0.0,0.0,8.999999999999999e-08
1728578981.7866194,34982,1728578981,774376320,base_link,0.0013082511852774538,0.00021724286699928137,-0.7069463226969988,-0.7072659599539369,1.0,0.0,0.0,0.0,1.0,0.0,0.0,0.0,1.0,0.00040802828152664006,-0.00023659231374040238,0.0005595351103693247,1.2184696791468346e-07,0.0,0.0,0.0,1.2184696791468346e-07,0.0,0.0,0.0,1.2184696791468346e-07,0.0,0.0,0.0,-1.0,0.0,0.0,0.0,8.999999999999999e-08,0.0,0.0,0.0,8.999999999999999e-08
1728578981.8132768,34983,1728578981,793547072,base_link,0.0012995927140148447,0.00020728470252482593,-0.7069518959759692,-0.7072604081014378,1.0,0.0,0.0,0.0,1.0,0.0,0.0,0.0,1.0,0.0012914207763969898,-8.804909884929649e-05,0.0006366772577166557,1.2184696791468346e-07,0.0,0.0,0.0,1.2184696791468346e-07,0.0,0.0,0.0,1.2184696791468346e-07,0.0,0.0,0.0,-1.0,0.0,0.0,0.0,8.999999999999999e-08,0.0,0.0,0.0,8.999999999999999e-08
1728578981.8240569,34984,1728578981,813547072,base_link,0.0012947173649618603,0.00021278439886495112,-0.7069607691562075,-0.7072515459889839,1.0,0.0,0.0,0.0,1.0,0.0,0.0,0.0,1.0,3.132293568341993e-05,-0.0008313395082950591,0.0011292325798422098,1.2184696791468346e-07,0.0,0.0,0.0,1.2184696791468346e-07,0.0,0.0,0.0,1.2184696791468346e-07,0.0,0.0,0.0,-1.0,0.0,0.0,0.0,8.999999999999999e-08,0.0,0.0,0.0,8.999999999999999e-08
1728578981.8459466,34985,1728578981,834547072,base_link,0.0013043463961667592,0.00021981495669446687,-0.7069618105699713,-0.7072504851588944,1.0,0.0,0.0,0.0,1.0,0.0,0.0,0.0,1.0,-0.001414807396940887,4.597436054609721e-05,0.0003611627616919577,1.2184696791468346e-07,0.0,0.0,0.0,1.2184696791468346e-07,0.0,0.0,0.0,1.2184696791468346e-07,0.0,0.0,0.0,-1.0,0.0,0.0,0.0,8.999999999999999e-08,0.0,0.0,0.0,8.999999999999999e-08
1728578981.8692257,34986,1728578981,853547072,base_link,0.0013078537909188876,0.0002128432028431507,-0.7069527245597182,-0.707259562999203,1.0,0.0,0.0,0.0,1.0,0.0,0.0,0.0,1.0,-0.00037610542494803667,0.0017126678721979258,-0.0013755843974649908,1.2184696791468346e-07,0.0,0.0,0.0,1.2184696791468346e-07,0.0,0.0,0.0,1.2184696791468346e-07,0.0,0.0,0.0,-1.0,0.0,0.0,0.0,8.999999999999999e-08,0.0,0.0,0.0,8.999999999999999e-08
1728578981.8859859,34987,1728578981,874547072,base_link,0.0012954964929519513,0.00021722669363764965,-0.7069528113407729,-0.7072594976660109,1.0,0.0,0.0,0.0,1.0,0.0,0.0,0.0,1.0,0.001040049595758319,-0.0012418399564921856,7.555499905720368e-05,1.2184696791468346e-07,0.0,0.0,0.0,1.2184696791468346e-07,0.0,0.0,0.0,1.2184696791468346e-07,0.0,0.0,0.0,-1.0,0.0,0.0,0.0,8.999999999999999e-08,0.0,0.0,0.0,8.999999999999999e-08
1728578981.9079187,34988,1728578981,893718080,base_link,0.0012801242892185227,0.00021783063261763175,-0.7069462618652778,-0.7072660720452592,1.0,0.0,0.0,0.0,1.0,0.0,0.0,0.0,1.0,0.0007478237384930253,-0.0013348688371479511,-0.0007620961405336855,1.2184696791468346e-07,0.0,0.0,0.0,1.2184696791468346e-07,0.0,0.0,0.0,1.2184696791468346e-07,0.0,0.0,0.0,-1.0,0.0,0.0,0.0,8.999999999999999e-08,0.0,0.0,0.0,8.999999999999999e-08
1728578981.9248178,34989,1728578981,913718080,base_link,0.0012715368842203792,0.00021886231605466704,-0.7069512626026656,-0.7072610887060982,1.0,0.0,0.0,0.0,1.0,0.0,0.0,0.0,1.0,0.0006654784665443003,-0.00043951920815743506,0.00013661746925208723,1.2184696791468346e-07,0.0,0.0,0.0,1.2184696791468346e-07,0.0,0.0,0.0,1.2184696791468346e-07,0.0,0.0,0.0,-1.0,0.0,0.0,0.0,8.999999999999999e-08,0.0,0.0,0.0,8.999999999999999e-08
1728578981.9456823,34990,1728578981,933718080,base_link,0.0012715811451988878,0.00022794486325815422,-0.7069468147716966,-0.7072655316121966,1.0,0.0,0.0,0.0,1.0,0.0,0.0,0.0,1.0,-0.00020374450832605362,-0.0006433471571654081,-0.00022923818323761217,1.2184696791468346e-07,0.0,0.0,0.0,1.2184696791468346e-07,0.0,0.0,0.0,1.2184696791468346e-07,0.0,0.0,0.0,-1.0,0.0,0.0,0.0,8.999999999999999e-08,0.0,0.0,0.0,8.999999999999999e-08
1728578981.9655666,34991,1728578981,954718080,base_link,0.0012578854563678544,0.00023762289534681752,-0.7069473267879687,-0.7072650411315996,1.0,0.0,0.0,0.0,1.0,0.0,0.0,0.0,1.0,0.0001623090065550059,-0.002031617797911167,-0.00010195508366450643,1.2184696791468346e-07,0.0,0.0,0.0,1.2184696791468346e-07,0.0,0.0,0.0,1.2184696791468346e-07,0.0,0.0,0.0,-1.0,0.0,0.0,0.0,8.999999999999999e-08,0.0,0.0,0.0,8.999999999999999e-08
1728578981.9871716,34992,1728578981,974718080,base_link,0.0012597670110738267,0.0002241952995363859,-0.7069457915457202,-0.7072665767158383,1.0,0.0,0.0,0.0,1.0,0.0,0.0,0.0,1.0,0.0003705193812493235,0.001167071284726262,-0.0004702182777691634,1.2184696791468346e-07,0.0,0.0,0.0,1.2184696791468346e-07,0.0,0.0,0.0,1.2184696791468346e-07,0.0,0.0,0.0,-1.0,0.0,0.0,0.0,8.999999999999999e-08,0.0,0.0,0.0,8.999999999999999e-08
1728578982.0054467,34993,1728578981,993888576,base_link,0.0012542250017584075,0.0002198525475975534,-0.7069437929064616,-0.7072685856557805,1.0,0.0,0.0,0.0,1.0,0.0,0.0,0.0,1.0,0.000961530429776758,0.0006833935040049255,-1.0790565283969128e-05,1.2184696791468346e-07,0.0,0.0,0.0,1.2184696791468346e-07,0.0,0.0,0.0,1.2184696791468346e-07,0.0,0.0,0.0,-1.0,0.0,0.0,0.0,8.999999999999999e-08,0.0,0.0,0.0,8.999999999999999e-08
1728578982.025055,34994,1728578982,13888576,base_link,0.0012404260379354497,0.00022602068334091156,-0.7069518596311931,-0.707260544935099,1.0,0.0,0.0,0.0,1.0,0.0,0.0,0.0,1.0,0.0003865042235702276,-0.0012148628011345861,0.0010184808634221556,1.2184696791468346e-07,0.0,0.0,0.0,1.2184696791468346e-07,0.0,0.0,0.0,1.2184696791468346e-07,0.0,0.0,0.0,-1.0,0.0,0.0,0.0,8.999999999999999e-08,0.0,0.0,0.0,8.999999999999999e-08
1728578982.0455313,34995,1728578982,33888576,base_link,0.0012250512352025538,0.00022340950484934144,-0.7069639554625655,-0.7072484818042296,1.0,0.0,0.0,0.0,1.0,0.0,0.0,0.0,1.0,0.000957273121457547,-0.0008291505509987471,0.0017826056573539972,1.2184696791468346e-07,0.0,0.0,0.0,1.2184696791468346e-07,0.0,0.0,0.0,1.2184696791468346e-07,0.0,0.0,0.0,-1.0,0.0,0.0,0.0,8.999999999999999e-08,0.0,0.0,0.0,8.999999999999999e-08
1728578982.0657678,34996,1728578982,53888576,base_link,0.0012327383961384967,0.000228703384906656,-0.7069632416993109,-0.7072491802305676,1.0,0.0,0.0,0.0,1.0,0.0,0.0,0.0,1.0,-0.0005258322926238179,0.0001233350049005821,-0.00016667696763761344,1.2184696791468346e-07,0.0,0.0,0.0,1.2184696791468346e-07,0.0,0.0,0.0,1.2184696791468346e-07,0.0,0.0,0.0,-1.0,0.0,0.0,0.0,8.999999999999999e-08,0.0,0.0,0.0,8.999999999999999e-08
1728578982.0855973,34997,1728578982,74888576,base_link,0.0012304296937569103,0.00022837817818429916,-0.7069584956254615,-0.7072539284791287,1.0,0.0,0.0,0.0,1.0,0.0,0.0,0.0,1.0,-0.00022359671129379421,-6.123786442913126e-05,-0.0008451419416815042,1.2184696791468346e-07,0.0,0.0,0.0,1.2184696791468346e-07,0.0,0.0,0.0,1.2184696791468346e-07,0.0,0.0,0.0,-1.0,0.0,0.0,0.0,8.999999999999999e-08,0.0,0.0,0.0,8.999999999999999e-08
