Time,header.seq,header.stamp.secs,header.stamp.nsecs,header.frame_id,orientation.x,orientation.y,orientation.z,orientation.w,orientation_covariance_0,orientation_covariance_1,orientation_covariance_2,orientation_covariance_3,orientation_covariance_4,orientation_covariance_5,orientation_covariance_6,orientation_covariance_7,orientation_covariance_8,angular_velocity.x,angular_velocity.y,angular_velocity.z,angular_velocity_covariance_0,angular_velocity_covariance_1,angular_velocity_covariance_2,angular_velocity_covariance_3,angular_velocity_covariance_4,angular_velocity_covariance_5,angular_velocity_covariance_6,angular_velocity_covariance_7,angular_velocity_covariance_8,linear_acceleration.x,linear_acceleration.y,linear_acceleration.z,linear_acceleration_covariance_0,linear_acceleration_covariance_1,linear_acceleration_covariance_2,linear_acceleration_covariance_3,linear_acceleration_covariance_4,linear_acceleration_covariance_5,linear_acceleration_covariance_6,linear_acceleration_covariance_7,linear_acceleration_covariance_8
1728916968.102264,195081,1728916968,91874880,base_link,-0.009758004602982005,0.019950963948268684,0.699723314964792,-0.7140686401729075,1.0,0.0,0.0,0.0,1.0,0.0,0.0,0.0,1.0,-0.0004791775718331337,0.0005895390640944242,-0.00033188518136739736,1.2184696791468346e-07,0.0,0.0,0.0,1.2184696791468346e-07,0.0,0.0,0.0,1.2184696791468346e-07,0.1372931,0.41187930000000117,9.7674234,8.999999999999999e-08,0.0,0.0,0.0,8.999999999999999e-08,0.0,0.0,0.0,8.999999999999999e-08
1728916968.2017097,195082,1728916968,192052800,base_link,-0.009763839415646541,0.019959615637923353,0.6997264749159586,-0.7140652221507067,1.0,0.0,0.0,0.0,1.0,0.0,0.0,0.0,1.0,-0.00048792269080877304,-9.05274646356702e-05,-0.0001608612947165966,1.2184696791468346e-07,0.0,0.0,0.0,1.2184696791468346e-07,0.0,0.0,0.0,1.2184696791468346e-07,0.1372931,0.41187930000000117,9.7674234,8.999999999999999e-08,0.0,0.0,0.0,8.999999999999999e-08,0.0,0.0,0.0,8.999999999999999e-08
1728916968.3029265,195083,1728916968,292230208,base_link,-0.009801735783223468,0.019979675555099424,0.6996984790985001,-0.714091574581016,1.0,0.0,0.0,0.0,1.0,0.0,0.0,0.0,1.0,0.0015839708503335714,0.0006731853354722264,0.0015396405942738056,1.2184696791468346e-07,0.0,0.0,0.0,1.2184696791468346e-07,0.0,0.0,0.0,1.2184696791468346e-07,0.14709975,0.4020726500000012,9.7870367,8.999999999999999e-08,0.0,0.0,0.0,8.999999999999999e-08,0.0,0.0,0.0,8.999999999999999e-08
1728916968.4025972,195084,1728916968,392407360,base_link,-0.009791048658771086,0.01997953889048987,0.699700698704054,-0.7140895501440583,1.0,0.0,0.0,0.0,1.0,0.0,0.0,0.0,1.0,-6.337114609777927e-05,-0.00047307496424764384,0.0009961960604414344,1.2184696791468346e-07,0.0,0.0,0.0,1.2184696791468346e-07,0.0,0.0,0.0,1.2184696791468346e-07,0.14709975,0.4020726500000012,9.7870367,8.999999999999999e-08,0.0,0.0,0.0,8.999999999999999e-08,0.0,0.0,0.0,8.999999999999999e-08
1728916968.5029993,195085,1728916968,492585536,base_link,-0.009785721225041318,0.020019966755077657,0.6996841361501169,-0.7141047193592099,1.0,0.0,0.0,0.0,1.0,0.0,0.0,0.0,1.0,0.0005517825484275818,-0.0002165460027754306,0.0006585457595065236,1.2184696791468346e-07,0.0,0.0,0.0,1.2184696791468346e-07,0.0,0.0,0.0,1.2184696791468346e-07,0.14709975,0.4020726500000012,9.7870367,8.999999999999999e-08,0.0,0.0,0.0,8.999999999999999e-08,0.0,0.0,0.0,8.999999999999999e-08
1728916968.6029491,195086,1728916968,592761408,base_link,-0.009777084605943624,0.02003234580902753,0.6996917900954333,-0.7140969910390632,1.0,0.0,0.0,0.0,1.0,0.0,0.0,0.0,1.0,0.00043498119339346886,-0.0004247246542945503,0.0007980205700732768,1.2184696791468346e-07,0.0,0.0,0.0,1.2184696791468346e-07,0.0,0.0,0.0,1.2184696791468346e-07,0.14709975,0.4020726500000012,9.7870367,8.999999999999999e-08,0.0,0.0,0.0,8.999999999999999e-08,0.0,0.0,0.0,8.999999999999999e-08
1728916968.7027538,195087,1728916968,692938304,base_link,-0.009805114207181151,0.020007738610082263,0.6996817560114151,-0.714107128122859,1.0,0.0,0.0,0.0,1.0,0.0,0.0,0.0,1.0,0.0009419228881597519,0.0006906276685185732,0.0009649103740230202,1.2184696791468346e-07,0.0,0.0,0.0,1.2184696791468346e-07,0.0,0.0,0.0,1.2184696791468346e-07,0.14709975,0.4020726500000012,9.7870367,8.999999999999999e-08,0.0,0.0,0.0,8.999999999999999e-08,0.0,0.0,0.0,8.999999999999999e-08
1728916968.8039463,195088,1728916968,793114688,base_link,-0.009783415865279333,0.019999297080957854,0.6996699914990432,-0.7141191888515555,1.0,0.0,0.0,0.0,1.0,0.0,0.0,0.0,1.0,0.001119979890063405,0.00019887113012373456,0.0006820762064307928,1.2184696791468346e-07,0.0,0.0,0.0,1.2184696791468346e-07,0.0,0.0,0.0,1.2184696791468346e-07,0.14709975,0.4020726500000012,9.7674234,8.999999999999999e-08,0.0,0.0,0.0,8.999999999999999e-08,0.0,0.0,0.0,8.999999999999999e-08
1728916968.9041793,195089,1728916968,893290560,base_link,-0.009761999115564295,0.019974045612448803,0.6996584486928012,-0.7141314977284802,1.0,0.0,0.0,0.0,1.0,0.0,0.0,0.0,1.0,-0.00032179546542465687,-0.0008361313957720995,0.00028393184766173374,1.2184696791468346e-07,0.0,0.0,0.0,1.2184696791468346e-07,0.0,0.0,0.0,1.2184696791468346e-07,0.14709975,0.4020726500000012,9.7674234,8.999999999999999e-08,0.0,0.0,0.0,8.999999999999999e-08,0.0,0.0,0.0,8.999999999999999e-08
1728916969.0037901,195090,1728916968,993465920,base_link,-0.009773648458358812,0.01999924782864068,0.6996630110103813,-0.714126163157455,1.0,0.0,0.0,0.0,1.0,0.0,0.0,0.0,1.0,0.0014439171645790339,0.00013179145753383626,-0.0008993434021249413,1.2184696791468346e-07,0.0,0.0,0.0,1.2184696791468346e-07,0.0,0.0,0.0,1.2184696791468346e-07,0.14709975,0.4020726500000012,9.7674234,8.999999999999999e-08,0.0,0.0,0.0,8.999999999999999e-08,0.0,0.0,0.0,8.999999999999999e-08
1728916969.1039515,195091,1728916969,93640512,base_link,-0.00978010480996062,0.020027773968633807,0.6996426106159004,-0.7141452619952996,1.0,0.0,0.0,0.0,1.0,0.0,0.0,0.0,1.0,-0.00038439035415649414,0.00022147828713059425,-6.191246211528781e-05,1.2184696791468346e-07,0.0,0.0,0.0,1.2184696791468346e-07,0.0,0.0,0.0,1.2184696791468346e-07,0.14709975,0.4020726500000012,9.7674234,8.999999999999999e-08,0.0,0.0,0.0,8.999999999999999e-08,0.0,0.0,0.0,8.999999999999999e-08
1728916969.2046278,195092,1728916969,193814592,base_link,-0.009785692535402745,0.02002647351720749,0.6996496303438996,-0.7141383446781944,1.0,0.0,0.0,0.0,1.0,0.0,0.0,0.0,1.0,-0.000453372485935688,0.0001459663035348058,0.00029848702251911163,1.2184696791468346e-07,0.0,0.0,0.0,1.2184696791468346e-07,0.0,0.0,0.0,1.2184696791468346e-07,0.14709975,0.4020726500000012,9.7674234,8.999999999999999e-08,0.0,0.0,0.0,8.999999999999999e-08,0.0,0.0,0.0,8.999999999999999e-08
1728916969.3039756,195093,1728916969,293989696,base_link,-0.009777340126250134,0.02004333967292809,0.699639612705369,-0.7141478001704497,1.0,0.0,0.0,0.0,1.0,0.0,0.0,0.0,1.0,0.000321822939440608,-0.0006430970970541239,0.00037644430994987493,1.2184696791468346e-07,0.0,0.0,0.0,1.2184696791468346e-07,0.0,0.0,0.0,1.2184696791468346e-07,0.1372931,0.4216859500000012,9.7674234,8.999999999999999e-08,0.0,0.0,0.0,8.999999999999999e-08,0.0,0.0,0.0,8.999999999999999e-08
1728916969.4051456,195094,1728916969,394164288,base_link,-0.0097946872189829,0.020025352646786693,0.6996382487295635,-0.7141494033241808,1.0,0.0,0.0,0.0,1.0,0.0,0.0,0.0,1.0,0.0006184729281812906,-0.000980800832621753,0.0012268135324120524,1.2184696791468346e-07,0.0,0.0,0.0,1.2184696791468346e-07,0.0,0.0,0.0,1.2184696791468346e-07,0.1372931,0.4216859500000012,9.7674234,8.999999999999999e-08,0.0,0.0,0.0,8.999999999999999e-08,0.0,0.0,0.0,8.999999999999999e-08
1728916969.504822,195095,1728916969,494340928,base_link,-0.009802349262440868,0.02001699683170451,0.6996177045760136,-0.7141696585760041,1.0,0.0,0.0,0.0,1.0,0.0,0.0,0.0,1.0,0.0006467299535870552,-0.00014521798584610218,0.00035115459468215704,1.2184696791468346e-07,0.0,0.0,0.0,1.2184696791468346e-07,0.0,0.0,0.0,1.2184696791468346e-07,0.1372931,0.4216859500000012,9.7674234,8.999999999999999e-08,0.0,0.0,0.0,8.999999999999999e-08,0.0,0.0,0.0,8.999999999999999e-08
1728916969.604999,195096,1728916969,594517312,base_link,-0.009831090076271476,0.020009358960439254,0.6996134887818256,-0.7141736074207915,1.0,0.0,0.0,0.0,1.0,0.0,0.0,0.0,1.0,-0.00035473168827593327,0.0008583584567531944,0.0009425224852748214,1.2184696791468346e-07,0.0,0.0,0.0,1.2184696791468346e-07,0.0,0.0,0.0,1.2184696791468346e-07,0.1372931,0.4216859500000012,9.7674234,8.999999999999999e-08,0.0,0.0,0.0,8.999999999999999e-08,0.0,0.0,0.0,8.999999999999999e-08
1728916969.704615,195097,1728916969,694693440,base_link,-0.0098557670076501,0.02000682373463924,0.6996305908212324,-0.7141565845442267,1.0,0.0,0.0,0.0,1.0,0.0,0.0,0.0,1.0,-0.00022351741790771484,0.000316280173137784,-5.7726516388356726e-05,1.2184696791468346e-07,0.0,0.0,0.0,1.2184696791468346e-07,0.0,0.0,0.0,1.2184696791468346e-07,0.1372931,0.4216859500000012,9.7674234,8.999999999999999e-08,0.0,0.0,0.0,8.999999999999999e-08,0.0,0.0,0.0,8.999999999999999e-08
1728916969.8067088,195098,1728916969,794870080,base_link,-0.009864712164620627,0.019992440951787004,0.6996236740229854,-0.7141636398650367,1.0,0.0,0.0,0.0,1.0,0.0,0.0,0.0,1.0,-4.389975219964981e-05,-0.0006312122568488121,-3.3437507227063104e-05,1.2184696791468346e-07,0.0,0.0,0.0,1.2184696791468346e-07,0.0,0.0,0.0,1.2184696791468346e-07,0.14709975,0.4020726500000012,9.75761675,8.999999999999999e-08,0.0,0.0,0.0,8.999999999999999e-08,0.0,0.0,0.0,8.999999999999999e-08
1728916969.9052,195099,1728916969,895049024,base_link,-0.009875380818664004,0.01999138214996643,0.6996126305955923,-0.7141743404831454,1.0,0.0,0.0,0.0,1.0,0.0,0.0,0.0,1.0,-0.0003340768162161112,0.0005302255158312618,-0.00044855708256363874,1.2184696791468346e-07,0.0,0.0,0.0,1.2184696791468346e-07,0.0,0.0,0.0,1.2184696791468346e-07,0.14709975,0.4020726500000012,9.75761675,8.999999999999999e-08,0.0,0.0,0.0,8.999999999999999e-08,0.0,0.0,0.0,8.999999999999999e-08
1728916970.0047727,195100,1728916969,995224896,base_link,-0.00986340793504279,0.02002850726491469,0.6995941163114271,-0.7141916020950397,1.0,0.0,0.0,0.0,1.0,0.0,0.0,0.0,1.0,0.00034778425469994545,-0.0003220605431124568,-0.00013999023940414188,1.2184696791468346e-07,0.0,0.0,0.0,1.2184696791468346e-07,0.0,0.0,0.0,1.2184696791468346e-07,0.14709975,0.4020726500000012,9.75761675,8.999999999999999e-08,0.0,0.0,0.0,8.999999999999999e-08,0.0,0.0,0.0,8.999999999999999e-08
1728916970.1059556,195101,1728916970,95400512,base_link,-0.009844504968917539,0.020021057340545143,0.6995538737441925,-0.7142314895846988,1.0,0.0,0.0,0.0,1.0,0.0,0.0,0.0,1.0,-0.0004803803749382496,0.0004503260133787991,0.0012792872730642557,1.2184696791468346e-07,0.0,0.0,0.0,1.2184696791468346e-07,0.0,0.0,0.0,1.2184696791468346e-07,0.14709975,0.4020726500000012,9.75761675,8.999999999999999e-08,0.0,0.0,0.0,8.999999999999999e-08,0.0,0.0,0.0,8.999999999999999e-08
1728916970.2056987,195102,1728916970,195575360,base_link,-0.00981412673758297,0.02002915733524489,0.6995424044272132,-0.7142429139872596,1.0,0.0,0.0,0.0,1.0,0.0,0.0,0.0,1.0,0.0005074501968920231,-0.001643471186980605,0.0017522919224575164,1.2184696791468346e-07,0.0,0.0,0.0,1.2184696791468346e-07,0.0,0.0,0.0,1.2184696791468346e-07,0.14709975,0.4020726500000012,9.75761675,8.999999999999999e-08,0.0,0.0,0.0,8.999999999999999e-08,0.0,0.0,0.0,8.999999999999999e-08
1728916970.3058963,195103,1728916970,295749952,base_link,-0.009803883847103807,0.020028282145373524,0.6995535890547353,-0.7142321246040787,1.0,0.0,0.0,0.0,1.0,0.0,0.0,0.0,1.0,-0.00029165763407945633,0.0005333257140591742,0.000989022315479815,1.2184696791468346e-07,0.0,0.0,0.0,1.2184696791468346e-07,0.0,0.0,0.0,1.2184696791468346e-07,0.1372931,0.41187930000000117,9.7674234,8.999999999999999e-08,0.0,0.0,0.0,8.999999999999999e-08,0.0,0.0,0.0,8.999999999999999e-08
1728916970.406142,195104,1728916970,395925312,base_link,-0.00979570784247191,0.02001977413287171,0.699573082030296,-0.714213382435646,1.0,0.0,0.0,0.0,1.0,0.0,0.0,0.0,1.0,0.0005187266506254673,-4.14798269048333e-05,0.00012462935410439968,1.2184696791468346e-07,0.0,0.0,0.0,1.2184696791468346e-07,0.0,0.0,0.0,1.2184696791468346e-07,0.1372931,0.41187930000000117,9.7674234,8.999999999999999e-08,0.0,0.0,0.0,8.999999999999999e-08,0.0,0.0,0.0,8.999999999999999e-08
1728916970.5057998,195105,1728916970,496104768,base_link,-0.00978100854618685,0.01999887935278466,0.6995596248660771,-0.7142273503259907,1.0,0.0,0.0,0.0,1.0,0.0,0.0,0.0,1.0,0.00017029792070388794,8.415768388658769e-05,0.0005672257393598557,1.2184696791468346e-07,0.0,0.0,0.0,1.2184696791468346e-07,0.0,0.0,0.0,1.2184696791468346e-07,0.1372931,0.41187930000000117,9.7674234,8.999999999999999e-08,0.0,0.0,0.0,8.999999999999999e-08,0.0,0.0,0.0,8.999999999999999e-08
1728916970.606999,195106,1728916970,596278848,base_link,-0.009772407252469043,0.02001866570525482,0.6995327436707994,-0.7142532419333334,1.0,0.0,0.0,0.0,1.0,0.0,0.0,0.0,1.0,0.00044884555973112583,-0.001139945932663977,0.0018435162492096426,1.2184696791468346e-07,0.0,0.0,0.0,1.2184696791468346e-07,0.0,0.0,0.0,1.2184696791468346e-07,0.1372931,0.41187930000000117,9.7674234,8.999999999999999e-08,0.0,0.0,0.0,8.999999999999999e-08,0.0,0.0,0.0,8.999999999999999e-08
1728916970.7073755,195107,1728916970,696457280,base_link,-0.009762403900086605,0.020037032836856466,0.6995179972875996,-0.7142673058848013,1.0,0.0,0.0,0.0,1.0,0.0,0.0,0.0,1.0,0.0006568648386746645,-0.0010719564743340013,0.001449468079954386,1.2184696791468346e-07,0.0,0.0,0.0,1.2184696791468346e-07,0.0,0.0,0.0,1.2184696791468346e-07,0.1372931,0.41187930000000117,9.7674234,8.999999999999999e-08,0.0,0.0,0.0,8.999999999999999e-08,0.0,0.0,0.0,8.999999999999999e-08
1728916970.8068144,195108,1728916970,796634944,base_link,-0.009770906030285138,0.020080334283835568,0.6995346487360669,-0.714249665584874,1.0,0.0,0.0,0.0,1.0,0.0,0.0,0.0,1.0,0.0014853281900286674,-0.0018993668491020797,0.0009262684616260233,1.2184696791468346e-07,0.0,0.0,0.0,1.2184696791468346e-07,0.0,0.0,0.0,1.2184696791468346e-07,0.1372931,0.4216859500000012,9.7478101,8.999999999999999e-08,0.0,0.0,0.0,8.999999999999999e-08,0.0,0.0,0.0,8.999999999999999e-08
1728916970.9071016,195109,1728916970,896812608,base_link,-0.009745232176213032,0.020102954502973967,0.6995095600615929,-0.7142739509827583,1.0,0.0,0.0,0.0,1.0,0.0,0.0,0.0,1.0,-0.00029150350019335747,-0.00036876334343105533,0.0016855025896802545,1.2184696791468346e-07,0.0,0.0,0.0,1.2184696791468346e-07,0.0,0.0,0.0,1.2184696791468346e-07,0.1372931,0.4216859500000012,9.7478101,8.999999999999999e-08,0.0,0.0,0.0,8.999999999999999e-08,0.0,0.0,0.0,8.999999999999999e-08
1728916971.010235,195110,1728916970,996989504,base_link,-0.00973274362290023,0.02009316396218362,0.6995135045152927,-0.7142705338065497,1.0,0.0,0.0,0.0,1.0,0.0,0.0,0.0,1.0,-0.00016973726451396942,-0.0006512069376185534,0.0014372384175658226,1.2184696791468346e-07,0.0,0.0,0.0,1.2184696791468346e-07,0.0,0.0,0.0,1.2184696791468346e-07,0.1372931,0.4216859500000012,9.7478101,8.999999999999999e-08,0.0,0.0,0.0,8.999999999999999e-08,0.0,0.0,0.0,8.999999999999999e-08
1728916971.10703,195111,1728916971,97165632,base_link,-0.009757643514087635,0.020089610033529114,0.6995177760029125,-0.7142661107862337,1.0,0.0,0.0,0.0,1.0,0.0,0.0,0.0,1.0,9.266287088394165e-05,0.0002605135086923837,-0.0005574042443186045,1.2184696791468346e-07,0.0,0.0,0.0,1.2184696791468346e-07,0.0,0.0,0.0,1.2184696791468346e-07,0.1372931,0.4216859500000012,9.7478101,8.999999999999999e-08,0.0,0.0,0.0,8.999999999999999e-08,0.0,0.0,0.0,8.999999999999999e-08
1728916971.229605,195112,1728916971,197343040,base_link,-0.009726490208627056,0.020066209823069517,0.6995102714527528,-0.7142745429760562,1.0,0.0,0.0,0.0,1.0,0.0,0.0,0.0,1.0,-0.00046150735579431057,0.00014636258129030474,0.0007094164611771703,1.2184696791468346e-07,0.0,0.0,0.0,1.2184696791468346e-07,0.0,0.0,0.0,1.2184696791468346e-07,0.1372931,0.4216859500000012,9.7478101,8.999999999999999e-08,0.0,0.0,0.0,8.999999999999999e-08,0.0,0.0,0.0,8.999999999999999e-08
1728916971.3078856,195113,1728916971,297519680,base_link,-0.009744629574503814,0.020071945013550474,0.6995049941345867,-0.7142793027931026,1.0,0.0,0.0,0.0,1.0,0.0,0.0,0.0,1.0,0.0004939134232699871,-4.386785440146908e-05,0.0012193664442747831,1.2184696791468346e-07,0.0,0.0,0.0,1.2184696791468346e-07,0.0,0.0,0.0,1.2184696791468346e-07,0.14709975,0.41187930000000117,9.77723005,8.999999999999999e-08,0.0,0.0,0.0,8.999999999999999e-08,0.0,0.0,0.0,8.999999999999999e-08
1728916971.4089677,195114,1728916971,397695808,base_link,-0.009726322709841978,0.020091624675972888,0.6994899541179619,-0.7142937276446402,1.0,0.0,0.0,0.0,1.0,0.0,0.0,0.0,1.0,-0.0013100320938974619,-0.00015939364675432452,-0.0005589751526713371,1.2184696791468346e-07,0.0,0.0,0.0,1.2184696791468346e-07,0.0,0.0,0.0,1.2184696791468346e-07,0.14709975,0.41187930000000117,9.77723005,8.999999999999999e-08,0.0,0.0,0.0,8.999999999999999e-08,0.0,0.0,0.0,8.999999999999999e-08
1728916971.507774,195115,1728916971,497871680,base_link,-0.009742317892688028,0.020068935864961234,0.6994864253698082,-0.714297603089002,1.0,0.0,0.0,0.0,1.0,0.0,0.0,0.0,1.0,-0.0009616478346288204,0.0008224299526773394,0.000687616062350571,1.2184696791468346e-07,0.0,0.0,0.0,1.2184696791468346e-07,0.0,0.0,0.0,1.2184696791468346e-07,0.14709975,0.41187930000000117,9.77723005,8.999999999999999e-08,0.0,0.0,0.0,8.999999999999999e-08,0.0,0.0,0.0,8.999999999999999e-08
1728916971.6085453,195116,1728916971,598047040,base_link,-0.009742424321280337,0.020081007789923472,0.6994719401787393,-0.714311446917292,1.0,0.0,0.0,0.0,1.0,0.0,0.0,0.0,1.0,-0.000272323377430439,-0.0005082704592496156,0.0008481275872327388,1.2184696791468346e-07,0.0,0.0,0.0,1.2184696791468346e-07,0.0,0.0,0.0,1.2184696791468346e-07,0.14709975,0.41187930000000117,9.77723005,8.999999999999999e-08,0.0,0.0,0.0,8.999999999999999e-08,0.0,0.0,0.0,8.999999999999999e-08
1728916971.7082665,195117,1728916971,698223168,base_link,-0.009729104313804351,0.02009068222790264,0.6994464506925205,-0.7143363154918725,1.0,0.0,0.0,0.0,1.0,0.0,0.0,0.0,1.0,0.0005032988265156746,-0.0003636204637587069,0.0012423647567629814,1.2184696791468346e-07,0.0,0.0,0.0,1.2184696791468346e-07,0.0,0.0,0.0,1.2184696791468346e-07,0.14709975,0.41187930000000117,9.77723005,8.999999999999999e-08,0.0,0.0,0.0,8.999999999999999e-08,0.0,0.0,0.0,8.999999999999999e-08
1728916971.8100376,195118,1728916971,798399808,base_link,-0.009736091855746374,0.02006573979697321,0.6994260346173997,-0.7143569112853576,1.0,0.0,0.0,0.0,1.0,0.0,0.0,0.0,1.0,-0.0006720679812133312,0.0006309422897174955,0.0010903552174568176,1.2184696791468346e-07,0.0,0.0,0.0,1.2184696791468346e-07,0.0,0.0,0.0,1.2184696791468346e-07,0.1372931,0.41187930000000117,9.7674234,8.999999999999999e-08,0.0,0.0,0.0,8.999999999999999e-08,0.0,0.0,0.0,8.999999999999999e-08
1728916971.909425,195119,1728916971,898577728,base_link,-0.009781739085914511,0.020040590851605505,0.699411495219512,-0.7143712288814411,1.0,0.0,0.0,0.0,1.0,0.0,0.0,0.0,1.0,0.00011004018597304821,0.001735318801365793,0.002167368773370981,1.2184696791468346e-07,0.0,0.0,0.0,1.2184696791468346e-07,0.0,0.0,0.0,1.2184696791468346e-07,0.1372931,0.41187930000000117,9.7674234,8.999999999999999e-08,0.0,0.0,0.0,8.999999999999999e-08,0.0,0.0,0.0,8.999999999999999e-08
1728916972.009249,195120,1728916971,998755648,base_link,-0.009765092419512456,0.020041254631134663,0.6993823424825868,-0.71439997907784,1.0,0.0,0.0,0.0,1.0,0.0,0.0,0.0,1.0,0.00047260895371437073,0.0003820318961516025,0.0018315162742510438,1.2184696791468346e-07,0.0,0.0,0.0,1.2184696791468346e-07,0.0,0.0,0.0,1.2184696791468346e-07,0.1372931,0.41187930000000117,9.7674234,8.999999999999999e-08,0.0,0.0,0.0,8.999999999999999e-08,0.0,0.0,0.0,8.999999999999999e-08
1728916972.1089706,195121,1728916972,98929984,base_link,-0.009762983791334879,0.020037240955672685,0.6993472704187387,-0.714434453592654,1.0,0.0,0.0,0.0,1.0,0.0,0.0,0.0,1.0,-0.0014485083520412445,-0.0002678837627172468,0.0018198383040726185,1.2184696791468346e-07,0.0,0.0,0.0,1.2184696791468346e-07,0.0,0.0,0.0,1.2184696791468346e-07,0.1372931,0.41187930000000117,9.7674234,8.999999999999999e-08,0.0,0.0,0.0,8.999999999999999e-08,0.0,0.0,0.0,8.999999999999999e-08
1728916972.2101278,195122,1728916972,199107648,base_link,-0.00973847279088762,0.020024378825526618,0.6993190980720596,-0.7144627250403158,1.0,0.0,0.0,0.0,1.0,0.0,0.0,0.0,1.0,-0.0007202650886029005,-0.0002610826632007955,0.0011781760258600116,1.2184696791468346e-07,0.0,0.0,0.0,1.2184696791468346e-07,0.0,0.0,0.0,1.2184696791468346e-07,0.1372931,0.41187930000000117,9.7674234,8.999999999999999e-08,0.0,0.0,0.0,8.999999999999999e-08,0.0,0.0,0.0,8.999999999999999e-08
1728916972.3104136,195123,1728916972,299286848,base_link,-0.00973586697901527,0.020045154984078065,0.6993139056405506,-0.7144672602951028,1.0,0.0,0.0,0.0,1.0,0.0,0.0,0.0,1.0,0.0014924737624824047,-0.000182342017069459,-0.00011775817256420848,1.2184696791468346e-07,0.0,0.0,0.0,1.2184696791468346e-07,0.0,0.0,0.0,1.2184696791468346e-07,0.1372931,0.4020726500000012,9.7674234,8.999999999999999e-08,0.0,0.0,0.0,8.999999999999999e-08,0.0,0.0,0.0,8.999999999999999e-08
1728916972.4105551,195124,1728916972,399463232,base_link,-0.00973491169924847,0.02001927136487415,0.6992949607072403,-0.714486541649097,1.0,0.0,0.0,0.0,1.0,0.0,0.0,0.0,1.0,3.202981315553188e-05,5.5033015087247615e-06,0.0005901390686631203,1.2184696791468346e-07,0.0,0.0,0.0,1.2184696791468346e-07,0.0,0.0,0.0,1.2184696791468346e-07,0.1372931,0.4020726500000012,9.7674234,8.999999999999999e-08,0.0,0.0,0.0,8.999999999999999e-08,0.0,0.0,0.0,8.999999999999999e-08
1728916972.5108135,195125,1728916972,499641152,base_link,-0.009742882937484286,0.020036190529808786,0.6992429260968365,-0.714536883306001,1.0,0.0,0.0,0.0,1.0,0.0,0.0,0.0,1.0,0.0008620591834187508,-0.000567543553188443,0.0016973245656117797,1.2184696791468346e-07,0.0,0.0,0.0,1.2184696791468346e-07,0.0,0.0,0.0,1.2184696791468346e-07,0.1372931,0.4020726500000012,9.7674234,8.999999999999999e-08,0.0,0.0,0.0,8.999999999999999e-08,0.0,0.0,0.0,8.999999999999999e-08
1728916972.6099348,195126,1728916972,599819840,base_link,-0.009743629653652523,0.020024283683090973,0.699232783943427,-0.7145471318274786,1.0,0.0,0.0,0.0,1.0,0.0,0.0,0.0,1.0,-0.0003467886708676815,0.0012091418029740453,0.00035553227644413693,1.2184696791468346e-07,0.0,0.0,0.0,1.2184696791468346e-07,0.0,0.0,0.0,1.2184696791468346e-07,0.1372931,0.4020726500000012,9.7674234,8.999999999999999e-08,0.0,0.0,0.0,8.999999999999999e-08,0.0,0.0,0.0,8.999999999999999e-08
1728916972.7124565,195127,1728916972,699996736,base_link,-0.00972639582521223,0.020048301259970154,0.6992368743601978,-0.7145426903802334,1.0,0.0,0.0,0.0,1.0,0.0,0.0,0.0,1.0,4.47083730250597e-05,0.00014684267807751878,-0.0012539118761196733,1.2184696791468346e-07,0.0,0.0,0.0,1.2184696791468346e-07,0.0,0.0,0.0,1.2184696791468346e-07,0.1372931,0.4020726500000012,9.7674234,8.999999999999999e-08,0.0,0.0,0.0,8.999999999999999e-08,0.0,0.0,0.0,8.999999999999999e-08
1728916972.8108068,195128,1728916972,800172352,base_link,-0.009729101354481748,0.020028816353820547,0.699215529114745,-0.714564087361719,1.0,0.0,0.0,0.0,1.0,0.0,0.0,0.0,1.0,4.762131720781326e-05,-0.0007014336297288537,0.000147662009112537,1.2184696791468346e-07,0.0,0.0,0.0,1.2184696791468346e-07,0.0,0.0,0.0,1.2184696791468346e-07,0.12748645,0.39226600000000117,9.75761675,8.999999999999999e-08,0.0,0.0,0.0,8.999999999999999e-08,0.0,0.0,0.0,8.999999999999999e-08
1728916972.910137,195129,1728916972,900347456,base_link,-0.009717879873749915,0.020007271440132774,0.6991969705080878,-0.7145830031092207,1.0,0.0,0.0,0.0,1.0,0.0,0.0,0.0,1.0,-0.00030591385439038277,-5.7200435549020727e-05,0.0003118608146905899,1.2184696791468346e-07,0.0,0.0,0.0,1.2184696791468346e-07,0.0,0.0,0.0,1.2184696791468346e-07,0.12748645,0.39226600000000117,9.75761675,8.999999999999999e-08,0.0,0.0,0.0,8.999999999999999e-08,0.0,0.0,0.0,8.999999999999999e-08
1728916973.0107925,195130,1728916973,522816,base_link,-0.009724129896977723,0.01999005049140109,0.6991875739359091,-0.7145925941630764,1.0,0.0,0.0,0.0,1.0,0.0,0.0,0.0,1.0,-0.0006612578872591257,0.0017082210397347808,0.00018074933905154445,1.2184696791468346e-07,0.0,0.0,0.0,1.2184696791468346e-07,0.0,0.0,0.0,1.2184696791468346e-07,0.12748645,0.39226600000000117,9.75761675,8.999999999999999e-08,0.0,0.0,0.0,8.999999999999999e-08,0.0,0.0,0.0,8.999999999999999e-08
1728916973.1109393,195131,1728916973,100700480,base_link,-0.00973903103524257,0.019962367711125452,0.6991622805501639,-0.7146179123180122,1.0,0.0,0.0,0.0,1.0,0.0,0.0,0.0,1.0,-0.00010774144902825356,0.0011560898274183273,-0.00012145796790719046,1.2184696791468346e-07,0.0,0.0,0.0,1.2184696791468346e-07,0.0,0.0,0.0,1.2184696791468346e-07,0.12748645,0.39226600000000117,9.75761675,8.999999999999999e-08,0.0,0.0,0.0,8.999999999999999e-08,0.0,0.0,0.0,8.999999999999999e-08
1728916973.211254,195132,1728916973,200877120,base_link,-0.009728913201760359,0.019938453715435064,0.6991497511587684,-0.7146309759351199,1.0,0.0,0.0,0.0,1.0,0.0,0.0,0.0,1.0,4.505482502281666e-05,0.0006518323207274081,0.00140935939271003,1.2184696791468346e-07,0.0,0.0,0.0,1.2184696791468346e-07,0.0,0.0,0.0,1.2184696791468346e-07,0.12748645,0.39226600000000117,9.75761675,8.999999999999999e-08,0.0,0.0,0.0,8.999999999999999e-08,0.0,0.0,0.0,8.999999999999999e-08
1728916973.3109457,195133,1728916973,301053760,base_link,-0.009734268219651543,0.01992547111395341,0.6991567656599001,-0.714624402504632,1.0,0.0,0.0,0.0,1.0,0.0,0.0,0.0,1.0,0.00033579254522919655,-0.0003892945824190974,-0.00016397307626903052,1.2184696791468346e-07,0.0,0.0,0.0,1.2184696791468346e-07,0.0,0.0,0.0,1.2184696791468346e-07,0.1372931,0.4020726500000012,9.75761675,8.999999999999999e-08,0.0,0.0,0.0,8.999999999999999e-08,0.0,0.0,0.0,8.999999999999999e-08
1728916973.412108,195134,1728916973,401229888,base_link,-0.009711083056318855,0.019953389258517962,0.6991303253881591,-0.7146498060208355,1.0,0.0,0.0,0.0,1.0,0.0,0.0,0.0,1.0,0.0006620197091251612,-0.0016687485622242093,0.0007623377023264768,1.2184696791468346e-07,0.0,0.0,0.0,1.2184696791468346e-07,0.0,0.0,0.0,1.2184696791468346e-07,0.1372931,0.4020726500000012,9.75761675,8.999999999999999e-08,0.0,0.0,0.0,8.999999999999999e-08,0.0,0.0,0.0,8.999999999999999e-08
1728916973.5117645,195135,1728916973,501406272,base_link,-0.00969823639758925,0.019954047215565793,0.6991056782602386,-0.7146740731513823,1.0,0.0,0.0,0.0,1.0,0.0,0.0,0.0,1.0,0.0005490181501954794,-0.0019511104328557847,0.001030632993206382,1.2184696791468346e-07,0.0,0.0,0.0,1.2184696791468346e-07,0.0,0.0,0.0,1.2184696791468346e-07,0.1372931,0.4020726500000012,9.75761675,8.999999999999999e-08,0.0,0.0,0.0,8.999999999999999e-08,0.0,0.0,0.0,8.999999999999999e-08
1728916973.6119998,195136,1728916973,601582656,base_link,-0.009703981905494857,0.01999409966787875,0.6990592820350552,-0.7147182584167568,1.0,0.0,0.0,0.0,1.0,0.0,0.0,0.0,1.0,0.00036091567017138004,0.0003488444490358235,0.0013196757063269615,1.2184696791468346e-07,0.0,0.0,0.0,1.2184696791468346e-07,0.0,0.0,0.0,1.2184696791468346e-07,0.1372931,0.4020726500000012,9.75761675,8.999999999999999e-08,0.0,0.0,0.0,8.999999999999999e-08,0.0,0.0,0.0,8.999999999999999e-08
1728916973.7122386,195137,1728916973,701758784,base_link,-0.00973088817773316,0.01998351142915934,0.6990162786712022,-0.7147602473829231,1.0,0.0,0.0,0.0,1.0,0.0,0.0,0.0,1.0,-0.00046322448179125786,0.0013256141683086753,0.00014718493912368997,1.2184696791468346e-07,0.0,0.0,0.0,1.2184696791468346e-07,0.0,0.0,0.0,1.2184696791468346e-07,0.1372931,0.4020726500000012,9.75761675,8.999999999999999e-08,0.0,0.0,0.0,8.999999999999999e-08,0.0,0.0,0.0,8.999999999999999e-08
1728916973.811893,195138,1728916973,801933888,base_link,-0.009739682070366736,0.01998105391423386,0.6990207794615678,-0.7147557946309963,1.0,0.0,0.0,0.0,1.0,0.0,0.0,0.0,1.0,6.345147266983986e-05,0.0005281365010887384,-2.2614374756813114e-05,1.2184696791468346e-07,0.0,0.0,0.0,1.2184696791468346e-07,0.0,0.0,0.0,1.2184696791468346e-07,0.1372931,0.43149260000000117,9.7870367,8.999999999999999e-08,0.0,0.0,0.0,8.999999999999999e-08,0.0,0.0,0.0,8.999999999999999e-08
1728916973.912094,195139,1728916973,902108992,base_link,-0.009722533348281784,0.01995254300358318,0.6989982362765104,-0.7147788707392725,1.0,0.0,0.0,0.0,1.0,0.0,0.0,0.0,1.0,0.00017806794494390488,0.0002470719628036024,0.0013655174989253283,1.2184696791468346e-07,0.0,0.0,0.0,1.2184696791468346e-07,0.0,0.0,0.0,1.2184696791468346e-07,0.1372931,0.43149260000000117,9.7870367,8.999999999999999e-08,0.0,0.0,0.0,8.999999999999999e-08,0.0,0.0,0.0,8.999999999999999e-08
1728916974.0127134,195140,1728916974,2283328,base_link,-0.009724220069914897,0.019949952629066982,0.6989832217266728,-0.7147936028524113,1.0,0.0,0.0,0.0,1.0,0.0,0.0,0.0,1.0,0.0013018331956118345,0.000654997245874256,0.0011686506913974881,1.2184696791468346e-07,0.0,0.0,0.0,1.2184696791468346e-07,0.0,0.0,0.0,1.2184696791468346e-07,0.1372931,0.43149260000000117,9.7870367,8.999999999999999e-08,0.0,0.0,0.0,8.999999999999999e-08,0.0,0.0,0.0,8.999999999999999e-08
1728916974.112866,195141,1728916974,102458176,base_link,-0.009705994058041316,0.01997215976025562,0.6989588112495718,-0.7148171001664984,1.0,0.0,0.0,0.0,1.0,0.0,0.0,0.0,1.0,0.00011116499081254005,-0.0016023641219362617,0.0008392347372137012,1.2184696791468346e-07,0.0,0.0,0.0,1.2184696791468346e-07,0.0,0.0,0.0,1.2184696791468346e-07,0.1372931,0.43149260000000117,9.7870367,8.999999999999999e-08,0.0,0.0,0.0,8.999999999999999e-08,0.0,0.0,0.0,8.999999999999999e-08
1728916974.213995,195142,1728916974,202633536,base_link,-0.009734504407834339,0.019945523172410367,0.6989329656170119,-0.7148427275304139,1.0,0.0,0.0,0.0,1.0,0.0,0.0,0.0,1.0,-0.0004594954662024975,0.00046942720655351893,0.001497610122896731,1.2184696791468346e-07,0.0,0.0,0.0,1.2184696791468346e-07,0.0,0.0,0.0,1.2184696791468346e-07,0.1372931,0.43149260000000117,9.7870367,8.999999999999999e-08,0.0,0.0,0.0,8.999999999999999e-08,0.0,0.0,0.0,8.999999999999999e-08
1728916974.314222,195143,1728916974,302808128,base_link,-0.009749003450664035,0.01998326118037676,0.6989073396753139,-0.714866530726045,1.0,0.0,0.0,0.0,1.0,0.0,0.0,0.0,1.0,0.0005106583703309298,-0.000351704773493111,0.0007547781569883227,1.2184696791468346e-07,0.0,0.0,0.0,1.2184696791468346e-07,0.0,0.0,0.0,1.2184696791468346e-07,0.14709975,0.4020726500000012,9.75761675,8.999999999999999e-08,0.0,0.0,0.0,8.999999999999999e-08,0.0,0.0,0.0,8.999999999999999e-08
1728916974.4129949,195144,1728916974,402984768,base_link,-0.009749787876584613,0.01999486889746668,0.6988877424686243,-0.7148853546417386,1.0,0.0,0.0,0.0,1.0,0.0,0.0,0.0,1.0,0.0014574280939996243,0.00010355992708355213,0.001939632697030902,1.2184696791468346e-07,0.0,0.0,0.0,1.2184696791468346e-07,0.0,0.0,0.0,1.2184696791468346e-07,0.14709975,0.4020726500000012,9.75761675,8.999999999999999e-08,0.0,0.0,0.0,8.999999999999999e-08,0.0,0.0,0.0,8.999999999999999e-08
1728916974.5129826,195145,1728916974,503158080,base_link,-0.00975061179664253,0.019986744234916597,0.6988658070628041,-0.7149070144731654,1.0,0.0,0.0,0.0,1.0,0.0,0.0,0.0,1.0,-0.0006676276680082083,-0.00028361496515572055,0.0011586458422243595,1.2184696791468346e-07,0.0,0.0,0.0,1.2184696791468346e-07,0.0,0.0,0.0,1.2184696791468346e-07,0.14709975,0.4020726500000012,9.75761675,8.999999999999999e-08,0.0,0.0,0.0,8.999999999999999e-08,0.0,0.0,0.0,8.999999999999999e-08
1728916974.6139727,195146,1728916974,603331136,base_link,-0.00974982749678668,0.020031049480646424,0.6988358143839236,-0.7149351036666509,1.0,0.0,0.0,0.0,1.0,0.0,0.0,0.0,1.0,-0.00012291641905903816,-0.00036448880564421404,0.000942539656534791,1.2184696791468346e-07,0.0,0.0,0.0,1.2184696791468346e-07,0.0,0.0,0.0,1.2184696791468346e-07,0.14709975,0.4020726500000012,9.75761675,8.999999999999999e-08,0.0,0.0,0.0,8.999999999999999e-08,0.0,0.0,0.0,8.999999999999999e-08
1728916974.714197,195147,1728916974,703684160,base_link,-0.009752964973987217,0.020024355856064626,0.698834214076693,-0.7149368126503046,1.0,0.0,0.0,0.0,1.0,0.0,0.0,0.0,1.0,-0.0006272923201322556,-0.00026658119168132533,0.0010160724632441998,1.2184696791468346e-07,0.0,0.0,0.0,1.2184696791468346e-07,0.0,0.0,0.0,1.2184696791468346e-07,0.14709975,0.4020726500000012,9.75761675,8.999999999999999e-08,0.0,0.0,0.0,8.999999999999999e-08,0.0,0.0,0.0,8.999999999999999e-08
1728916974.8138974,195148,1728916974,803863360,base_link,-0.009755530716520133,0.02001446521049685,0.6988083200460694,-0.7149623644900247,1.0,0.0,0.0,0.0,1.0,0.0,0.0,0.0,1.0,-0.00024227495305240154,0.0007836267468519509,0.00043429131619632233,1.2184696791468346e-07,0.0,0.0,0.0,1.2184696791468346e-07,0.0,0.0,0.0,1.2184696791468346e-07,0.14709975,0.4020726500000012,9.7674234,8.999999999999999e-08,0.0,0.0,0.0,8.999999999999999e-08,0.0,0.0,0.0,8.999999999999999e-08
1728916974.915437,195149,1728916974,904041792,base_link,-0.009774542868615331,0.02002814221096504,0.6987811542983455,-0.7149882727910709,1.0,0.0,0.0,0.0,1.0,0.0,0.0,0.0,1.0,0.0008126574102789164,-0.0016607280122116208,0.00036245468072593234,1.2184696791468346e-07,0.0,0.0,0.0,1.2184696791468346e-07,0.0,0.0,0.0,1.2184696791468346e-07,0.14709975,0.4020726500000012,9.7674234,8.999999999999999e-08,0.0,0.0,0.0,8.999999999999999e-08,0.0,0.0,0.0,8.999999999999999e-08
1728916975.0142846,195150,1728916975,4219712,base_link,-0.009776819499656513,0.01999320527539846,0.6987634748511939,-0.7150064977027634,1.0,0.0,0.0,0.0,1.0,0.0,0.0,0.0,1.0,-0.0003161942586302757,0.0011087669990956783,0.00038929155562072976,1.2184696791468346e-07,0.0,0.0,0.0,1.2184696791468346e-07,0.0,0.0,0.0,1.2184696791468346e-07,0.14709975,0.4020726500000012,9.7674234,8.999999999999999e-08,0.0,0.0,0.0,8.999999999999999e-08,0.0,0.0,0.0,8.999999999999999e-08
1728916975.1143625,195151,1728916975,104396864,base_link,-0.009764274353069221,0.02000483120831441,0.6987269063886621,-0.7150420798548954,1.0,0.0,0.0,0.0,1.0,0.0,0.0,0.0,1.0,0.0011521680280566216,7.514236494898811e-05,0.0012455404503270984,1.2184696791468346e-07,0.0,0.0,0.0,1.2184696791468346e-07,0.0,0.0,0.0,1.2184696791468346e-07,0.14709975,0.4020726500000012,9.7674234,8.999999999999999e-08,0.0,0.0,0.0,8.999999999999999e-08,0.0,0.0,0.0,8.999999999999999e-08
1728916975.2155206,195152,1728916975,204575040,base_link,-0.00979161041359529,0.02000770333094777,0.6986837561572488,-0.7150837888352156,1.0,0.0,0.0,0.0,1.0,0.0,0.0,0.0,1.0,0.0005946601741015911,0.0004595198552124204,0.001415761187672615,1.2184696791468346e-07,0.0,0.0,0.0,1.2184696791468346e-07,0.0,0.0,0.0,1.2184696791468346e-07,0.14709975,0.4020726500000012,9.7674234,8.999999999999999e-08,0.0,0.0,0.0,8.999999999999999e-08,0.0,0.0,0.0,8.999999999999999e-08
1728916975.3147867,195153,1728916975,304752704,base_link,-0.009773057566538594,0.020018249216219926,0.6986878935186401,-0.7150797049942081,1.0,0.0,0.0,0.0,1.0,0.0,0.0,0.0,1.0,-0.0013196039944887161,-0.000551284523680806,0.0007838282035663725,1.2184696791468346e-07,0.0,0.0,0.0,1.2184696791468346e-07,0.0,0.0,0.0,1.2184696791468346e-07,0.14709975,0.41187930000000117,9.75761675,8.999999999999999e-08,0.0,0.0,0.0,8.999999999999999e-08,0.0,0.0,0.0,8.999999999999999e-08
1728916975.415929,195154,1728916975,404929600,base_link,-0.009772947328354148,0.020004123713833703,0.6986795973380913,-0.715088207704785,1.0,0.0,0.0,0.0,1.0,0.0,0.0,0.0,1.0,-0.00041733356192708015,-5.6206248700618825e-05,-0.0006560104666277766,1.2184696791468346e-07,0.0,0.0,0.0,1.2184696791468346e-07,0.0,0.0,0.0,1.2184696791468346e-07,0.14709975,0.41187930000000117,9.75761675,8.999999999999999e-08,0.0,0.0,0.0,8.999999999999999e-08,0.0,0.0,0.0,8.999999999999999e-08
1728916975.5161562,195155,1728916975,505106496,base_link,-0.009769507320578913,0.01999234117036848,0.6986483796190859,-0.7151190842628006,1.0,0.0,0.0,0.0,1.0,0.0,0.0,0.0,1.0,-0.0002548797056078911,0.0014464397681877017,-0.0002572493394836785,1.2184696791468346e-07,0.0,0.0,0.0,1.2184696791468346e-07,0.0,0.0,0.0,1.2184696791468346e-07,0.14709975,0.41187930000000117,9.75761675,8.999999999999999e-08,0.0,0.0,0.0,8.999999999999999e-08,0.0,0.0,0.0,8.999999999999999e-08
1728916975.6150112,195156,1728916975,605282880,base_link,-0.00977888310713498,0.019988210708254482,0.698658899743878,-0.7151087936017382,1.0,0.0,0.0,0.0,1.0,0.0,0.0,0.0,1.0,1.3547251001000404e-05,-5.022902041673652e-05,0.0006670608418062329,1.2184696791468346e-07,0.0,0.0,0.0,1.2184696791468346e-07,0.0,0.0,0.0,1.2184696791468346e-07,0.14709975,0.41187930000000117,9.75761675,8.999999999999999e-08,0.0,0.0,0.0,8.999999999999999e-08,0.0,0.0,0.0,8.999999999999999e-08
1728916975.715202,195157,1728916975,705458752,base_link,-0.009805963978575251,0.019967479555940214,0.6986457540158523,-0.7151218450210113,1.0,0.0,0.0,0.0,1.0,0.0,0.0,0.0,1.0,-5.597551353275776e-05,0.0012517122086137533,-0.0002819454530254008,1.2184696791468346e-07,0.0,0.0,0.0,1.2184696791468346e-07,0.0,0.0,0.0,1.2184696791468346e-07,0.14709975,0.41187930000000117,9.75761675,8.999999999999999e-08,0.0,0.0,0.0,8.999999999999999e-08,0.0,0.0,0.0,8.999999999999999e-08
1728916975.8158045,195158,1728916975,805635648,base_link,-0.009820964258710405,0.0199807602347455,0.6986179980460104,-0.7151483836852708,1.0,0.0,0.0,0.0,1.0,0.0,0.0,0.0,1.0,-6.609712727367878e-05,-0.001285491744056344,-0.0002722976496443151,1.2184696791468346e-07,0.0,0.0,0.0,1.2184696791468346e-07,0.0,0.0,0.0,1.2184696791468346e-07,0.1372931,0.4020726500000012,9.7478101,8.999999999999999e-08,0.0,0.0,0.0,8.999999999999999e-08,0.0,0.0,0.0,8.999999999999999e-08
1728916975.933363,195159,1728916975,905811776,base_link,-0.00982127491181868,0.020015308011932104,0.6986027723544009,-0.7151622868014216,1.0,0.0,0.0,0.0,1.0,0.0,0.0,0.0,1.0,0.00028227781876921654,-0.0011235675774514675,-0.0006314758211374282,1.2184696791468346e-07,0.0,0.0,0.0,1.2184696791468346e-07,0.0,0.0,0.0,1.2184696791468346e-07,0.1372931,0.4020726500000012,9.7478101,8.999999999999999e-08,0.0,0.0,0.0,8.999999999999999e-08,0.0,0.0,0.0,8.999999999999999e-08
1728916976.016284,195160,1728916976,5987648,base_link,-0.009823639228866211,0.020022593336041387,0.6986122871117716,-0.7151527558255368,1.0,0.0,0.0,0.0,1.0,0.0,0.0,0.0,1.0,0.0004774159751832485,-0.0004719939315691589,0.0009538110462017358,1.2184696791468346e-07,0.0,0.0,0.0,1.2184696791468346e-07,0.0,0.0,0.0,1.2184696791468346e-07,0.1372931,0.4020726500000012,9.7478101,8.999999999999999e-08,0.0,0.0,0.0,8.999999999999999e-08,0.0,0.0,0.0,8.999999999999999e-08
1728916976.1159601,195161,1728916976,106163008,base_link,-0.009844668612407934,0.019981630945493097,0.6985921273504903,-0.7151733052404755,1.0,0.0,0.0,0.0,1.0,0.0,0.0,0.0,1.0,0.000469856197014451,-0.0002537333639338611,0.0013076866744086146,1.2184696791468346e-07,0.0,0.0,0.0,1.2184696791468346e-07,0.0,0.0,0.0,1.2184696791468346e-07,0.1372931,0.4020726500000012,9.7478101,8.999999999999999e-08,0.0,0.0,0.0,8.999999999999999e-08,0.0,0.0,0.0,8.999999999999999e-08
1728916976.2162118,195162,1728916976,206340672,base_link,-0.009849906859108495,0.019978146948028866,0.6985706472359017,-0.7151943119179593,1.0,0.0,0.0,0.0,1.0,0.0,0.0,0.0,1.0,7.42240808904171e-06,0.0002819576766341926,0.0008151069632731378,1.2184696791468346e-07,0.0,0.0,0.0,1.2184696791468346e-07,0.0,0.0,0.0,1.2184696791468346e-07,0.1372931,0.4020726500000012,9.7478101,8.999999999999999e-08,0.0,0.0,0.0,8.999999999999999e-08,0.0,0.0,0.0,8.999999999999999e-08
1728916976.3159213,195163,1728916976,306517824,base_link,-0.009842393022136247,0.019982004659543508,0.698546742363165,-0.7152176560482788,1.0,0.0,0.0,0.0,1.0,0.0,0.0,0.0,1.0,-0.0004268083721399307,-0.0009700370719656346,0.001660651993006468,1.2184696791468346e-07,0.0,0.0,0.0,1.2184696791468346e-07,0.0,0.0,0.0,1.2184696791468346e-07,0.1372931,0.41187930000000117,9.77723005,8.999999999999999e-08,0.0,0.0,0.0,8.999999999999999e-08,0.0,0.0,0.0,8.999999999999999e-08
1728916976.4171066,195164,1728916976,406695488,base_link,-0.009852629006572572,0.019946134281193458,0.698545456499378,-0.7152197722609259,1.0,0.0,0.0,0.0,1.0,0.0,0.0,0.0,1.0,-0.0003449867945164442,-0.00029803044162690645,-0.000418271985836327,1.2184696791468346e-07,0.0,0.0,0.0,1.2184696791468346e-07,0.0,0.0,0.0,1.2184696791468346e-07,0.1372931,0.41187930000000117,9.77723005,8.999999999999999e-08,0.0,0.0,0.0,8.999999999999999e-08,0.0,0.0,0.0,8.999999999999999e-08
1728916976.5172932,195165,1728916976,506873152,base_link,-0.009878506448075296,0.019951936874888027,0.6985206370363549,-0.7152434934759075,1.0,0.0,0.0,0.0,1.0,0.0,0.0,0.0,1.0,-0.0004723162855952978,-1.899420749396069e-05,0.0013620360987260938,1.2184696791468346e-07,0.0,0.0,0.0,1.2184696791468346e-07,0.0,0.0,0.0,1.2184696791468346e-07,0.1372931,0.41187930000000117,9.77723005,8.999999999999999e-08,0.0,0.0,0.0,8.999999999999999e-08,0.0,0.0,0.0,8.999999999999999e-08
1728916976.616935,195166,1728916976,607050304,base_link,-0.009868416072503113,0.019905127318677156,0.6985008974303791,-0.7152642145106954,1.0,0.0,0.0,0.0,1.0,0.0,0.0,0.0,1.0,-0.0003589584957808256,0.0003754574572667481,0.001508992980234325,1.2184696791468346e-07,0.0,0.0,0.0,1.2184696791468346e-07,0.0,0.0,0.0,1.2184696791468346e-07,0.1372931,0.41187930000000117,9.77723005,8.999999999999999e-08,0.0,0.0,0.0,8.999999999999999e-08,0.0,0.0,0.0,8.999999999999999e-08
1728916976.7183044,195167,1728916976,707226944,base_link,-0.00986876365664949,0.019914756598636372,0.6984947389366801,-0.7152699557868242,1.0,0.0,0.0,0.0,1.0,0.0,0.0,0.0,1.0,-0.0008292202837765217,-5.267420783638956e-05,-0.00018589862156659365,1.2184696791468346e-07,0.0,0.0,0.0,1.2184696791468346e-07,0.0,0.0,0.0,1.2184696791468346e-07,0.1372931,0.41187930000000117,9.77723005,8.999999999999999e-08,0.0,0.0,0.0,8.999999999999999e-08,0.0,0.0,0.0,8.999999999999999e-08
1728916976.829704,195168,1728916976,807403072,base_link,-0.009859818277204977,0.019912434545232113,0.6984897735671102,-0.7152749926819683,1.0,0.0,0.0,0.0,1.0,0.0,0.0,0.0,1.0,-8.205347694456577e-05,0.00012585322838276636,0.000982886180281639,1.2184696791468346e-07,0.0,0.0,0.0,1.2184696791468346e-07,0.0,0.0,0.0,1.2184696791468346e-07,0.14709975,0.4020726500000012,9.77723005,8.999999999999999e-08,0.0,0.0,0.0,8.999999999999999e-08,0.0,0.0,0.0,8.999999999999999e-08
1728916976.9189596,195169,1728916976,907579968,base_link,-0.009864196692109802,0.019951612632730188,0.6984651184750379,-0.7152979162912639,1.0,0.0,0.0,0.0,1.0,0.0,0.0,0.0,1.0,-0.0001273886300623417,-3.305717837065438e-05,0.0016676537925377488,1.2184696791468346e-07,0.0,0.0,0.0,1.2184696791468346e-07,0.0,0.0,0.0,1.2184696791468346e-07,0.14709975,0.4020726500000012,9.77723005,8.999999999999999e-08,0.0,0.0,0.0,8.999999999999999e-08,0.0,0.0,0.0,8.999999999999999e-08
1728916977.018327,195170,1728916977,7756608,base_link,-0.009871965075677043,0.019959100227601778,0.6984582508588573,-0.7153043061738374,1.0,0.0,0.0,0.0,1.0,0.0,0.0,0.0,1.0,0.0004950701259076595,0.00020729436073452245,0.0008099081460386515,1.2184696791468346e-07,0.0,0.0,0.0,1.2184696791468346e-07,0.0,0.0,0.0,1.2184696791468346e-07,0.14709975,0.4020726500000012,9.77723005,8.999999999999999e-08,0.0,0.0,0.0,8.999999999999999e-08,0.0,0.0,0.0,8.999999999999999e-08
1728916977.1179557,195171,1728916977,107932736,base_link,-0.009883603041856313,0.019946069278968446,0.698426970335259,-0.7153350514406106,1.0,0.0,0.0,0.0,1.0,0.0,0.0,0.0,1.0,2.2979220375418663e-05,7.152825128287093e-05,0.0013696172973141074,1.2184696791468346e-07,0.0,0.0,0.0,1.2184696791468346e-07,0.0,0.0,0.0,1.2184696791468346e-07,0.14709975,0.4020726500000012,9.77723005,8.999999999999999e-08,0.0,0.0,0.0,8.999999999999999e-08,0.0,0.0,0.0,8.999999999999999e-08
1728916977.2181137,195172,1728916977,208107840,base_link,-0.009887602890203889,0.019954437757446528,0.6984367130133087,-0.7153252502449741,1.0,0.0,0.0,0.0,1.0,0.0,0.0,0.0,1.0,-0.0004484539385885,-0.00016985740512609466,0.0012892014347016811,1.2184696791468346e-07,0.0,0.0,0.0,1.2184696791468346e-07,0.0,0.0,0.0,1.2184696791468346e-07,0.14709975,0.4020726500000012,9.77723005,8.999999999999999e-08,0.0,0.0,0.0,8.999999999999999e-08,0.0,0.0,0.0,8.999999999999999e-08
1728916977.3190722,195173,1728916977,308282944,base_link,-0.009900123438723665,0.019949785201344886,0.6984202932756006,-0.7153412385478292,1.0,0.0,0.0,0.0,1.0,0.0,0.0,0.0,1.0,-0.0002547258045524359,0.0010336402337998154,0.001383699011057615,1.2184696791468346e-07,0.0,0.0,0.0,1.2184696791468346e-07,0.0,0.0,0.0,1.2184696791468346e-07,0.14709975,0.4216859500000012,9.75761675,8.999999999999999e-08,0.0,0.0,0.0,8.999999999999999e-08,0.0,0.0,0.0,8.999999999999999e-08
1728916977.4190063,195174,1728916977,408459328,base_link,-0.009906100618544087,0.019963161372260996,0.698420168337054,-0.7153409046172331,1.0,0.0,0.0,0.0,1.0,0.0,0.0,0.0,1.0,0.0009854866657406092,-1.818407326935892e-07,0.0006775473011657596,1.2184696791468346e-07,0.0,0.0,0.0,1.2184696791468346e-07,0.0,0.0,0.0,1.2184696791468346e-07,0.14709975,0.4216859500000012,9.75761675,8.999999999999999e-08,0.0,0.0,0.0,8.999999999999999e-08,0.0,0.0,0.0,8.999999999999999e-08
1728916977.518256,195175,1728916977,508634688,base_link,-0.009894895957852295,0.019919786904953364,0.6984090311927211,-0.715353142351447,1.0,0.0,0.0,0.0,1.0,0.0,0.0,0.0,1.0,-0.0009125794749706984,0.0002956901444122196,0.0006296474020928144,1.2184696791468346e-07,0.0,0.0,0.0,1.2184696791468346e-07,0.0,0.0,0.0,1.2184696791468346e-07,0.14709975,0.4216859500000012,9.75761675,8.999999999999999e-08,0.0,0.0,0.0,8.999999999999999e-08,0.0,0.0,0.0,8.999999999999999e-08
1728916977.618905,195176,1728916977,608809792,base_link,-0.009899121670039632,0.019929028207309813,0.6984005786797851,-0.7153610787040452,1.0,0.0,0.0,0.0,1.0,0.0,0.0,0.0,1.0,0.0005196940619498491,0.0008028353331610562,0.0005868923617526888,1.2184696791468346e-07,0.0,0.0,0.0,1.2184696791468346e-07,0.0,0.0,0.0,1.2184696791468346e-07,0.14709975,0.4216859500000012,9.75761675,8.999999999999999e-08,0.0,0.0,0.0,8.999999999999999e-08,0.0,0.0,0.0,8.999999999999999e-08
1728916977.7192652,195177,1728916977,708987200,base_link,-0.009927309434546873,0.019936198049102804,0.6983930336616914,-0.7153678543711319,1.0,0.0,0.0,0.0,1.0,0.0,0.0,0.0,1.0,-0.00010762270539999008,0.0002849991433322431,0.0008418823126703501,1.2184696791468346e-07,0.0,0.0,0.0,1.2184696791468346e-07,0.0,0.0,0.0,1.2184696791468346e-07,0.14709975,0.4216859500000012,9.75761675,8.999999999999999e-08,0.0,0.0,0.0,8.999999999999999e-08,0.0,0.0,0.0,8.999999999999999e-08
1728916977.8194282,195178,1728916977,809165632,base_link,-0.009962540890126248,0.01995263247947665,0.6983583503329925,-0.7154007651354117,1.0,0.0,0.0,0.0,1.0,0.0,0.0,0.0,1.0,0.001530943438410759,0.0010954443132504823,0.00170633930247277,1.2184696791468346e-07,0.0,0.0,0.0,1.2184696791468346e-07,0.0,0.0,0.0,1.2184696791468346e-07,0.1372931,0.41187930000000117,9.77723005,8.999999999999999e-08,0.0,0.0,0.0,8.999999999999999e-08,0.0,0.0,0.0,8.999999999999999e-08
1728916977.9191356,195179,1728916977,909343296,base_link,-0.00994996742948205,0.019945751551163758,0.6983394368919158,-0.7154195943812928,1.0,0.0,0.0,0.0,1.0,0.0,0.0,0.0,1.0,0.00031117256730794907,0.0005752538563683631,0.0016594699118286371,1.2184696791468346e-07,0.0,0.0,0.0,1.2184696791468346e-07,0.0,0.0,0.0,1.2184696791468346e-07,0.1372931,0.41187930000000117,9.77723005,8.999999999999999e-08,0.0,0.0,0.0,8.999999999999999e-08,0.0,0.0,0.0,8.999999999999999e-08
1728916978.019218,195180,1728916978,9520448,base_link,-0.009978385691342611,0.019963719202806707,0.6983299632821718,-0.7154279447414023,1.0,0.0,0.0,0.0,1.0,0.0,0.0,0.0,1.0,0.0014092468190938234,-5.916901864111418e-05,0.00043639878276735544,1.2184696791468346e-07,0.0,0.0,0.0,1.2184696791468346e-07,0.0,0.0,0.0,1.2184696791468346e-07,0.1372931,0.41187930000000117,9.77723005,8.999999999999999e-08,0.0,0.0,0.0,8.999999999999999e-08,0.0,0.0,0.0,8.999999999999999e-08
1728916978.120695,195181,1728916978,109697088,base_link,-0.009997335491988543,0.0199605387773877,0.69836886946633,-0.7153897904884421,1.0,0.0,0.0,0.0,1.0,0.0,0.0,0.0,1.0,0.0001571208704262972,6.847898475825669e-06,-0.0009610351407900453,1.2184696791468346e-07,0.0,0.0,0.0,1.2184696791468346e-07,0.0,0.0,0.0,1.2184696791468346e-07,0.1372931,0.41187930000000117,9.77723005,8.999999999999999e-08,0.0,0.0,0.0,8.999999999999999e-08,0.0,0.0,0.0,8.999999999999999e-08
1728916978.2210536,195182,1728916978,209873216,base_link,-0.01000411797863836,0.019960055331793267,0.6983716120821163,-0.7153870317893996,1.0,0.0,0.0,0.0,1.0,0.0,0.0,0.0,1.0,0.0003131660632789135,6.954476702958344e-05,-6.343121640384199e-05,1.2184696791468346e-07,0.0,0.0,0.0,1.2184696791468346e-07,0.0,0.0,0.0,1.2184696791468346e-07,0.1372931,0.41187930000000117,9.77723005,8.999999999999999e-08,0.0,0.0,0.0,8.999999999999999e-08,0.0,0.0,0.0,8.999999999999999e-08
1728916978.321248,195183,1728916978,310048832,base_link,-0.010025313237618148,0.019933786044030306,0.6983718421806168,-0.7153872429095239,1.0,0.0,0.0,0.0,1.0,0.0,0.0,0.0,1.0,-0.00031829532235860825,0.0010158492950722575,-0.0003219861537218095,1.2184696791468346e-07,0.0,0.0,0.0,1.2184696791468346e-07,0.0,0.0,0.0,1.2184696791468346e-07,0.1372931,0.41187930000000117,9.77723005,8.999999999999999e-08,0.0,0.0,0.0,8.999999999999999e-08,0.0,0.0,0.0,8.999999999999999e-08
1728916978.4201608,195184,1728916978,410225472,base_link,-0.010058583310442674,0.019955563041149118,0.698352790224317,-0.7154047671014003,1.0,0.0,0.0,0.0,1.0,0.0,0.0,0.0,1.0,0.0010813153348863125,-0.0014490071916952727,0.0017686762148514392,1.2184696791468346e-07,0.0,0.0,0.0,1.2184696791468346e-07,0.0,0.0,0.0,1.2184696791468346e-07,0.1372931,0.41187930000000117,9.77723005,8.999999999999999e-08,0.0,0.0,0.0,8.999999999999999e-08,0.0,0.0,0.0,8.999999999999999e-08
1728916978.520682,195185,1728916978,510401344,base_link,-0.010042264101670117,0.019969776938812342,0.698332339599723,-0.7154245623473546,1.0,0.0,0.0,0.0,1.0,0.0,0.0,0.0,1.0,-0.0003560078330338001,0.0008586524636484684,0.0008461601100862025,1.2184696791468346e-07,0.0,0.0,0.0,1.2184696791468346e-07,0.0,0.0,0.0,1.2184696791468346e-07,0.1372931,0.41187930000000117,9.77723005,8.999999999999999e-08,0.0,0.0,0.0,8.999999999999999e-08,0.0,0.0,0.0,8.999999999999999e-08
1728916978.6199834,195186,1728916978,610576704,base_link,-0.010057371036491385,0.019982018484683357,0.6983476021767132,-0.7154091100616116,1.0,0.0,0.0,0.0,1.0,0.0,0.0,0.0,1.0,-0.0004064389504492283,0.0004338213475421071,-9.689538273960357e-05,1.2184696791468346e-07,0.0,0.0,0.0,1.2184696791468346e-07,0.0,0.0,0.0,1.2184696791468346e-07,0.1372931,0.41187930000000117,9.77723005,8.999999999999999e-08,0.0,0.0,0.0,8.999999999999999e-08,0.0,0.0,0.0,8.999999999999999e-08
1728916978.720224,195187,1728916978,710751808,base_link,-0.01006808828959203,0.019984875697407454,0.6983335269264132,-0.7154226188149694,1.0,0.0,0.0,0.0,1.0,0.0,0.0,0.0,1.0,-0.00023409631103277206,0.0010790657252073288,0.00030266528483480204,1.2184696791468346e-07,0.0,0.0,0.0,1.2184696791468346e-07,0.0,0.0,0.0,1.2184696791468346e-07,0.1372931,0.41187930000000117,9.77723005,8.999999999999999e-08,0.0,0.0,0.0,8.999999999999999e-08,0.0,0.0,0.0,8.999999999999999e-08
1728916978.8213854,195188,1728916978,810926400,base_link,-0.01011149834061111,0.01998484413606427,0.6983470005577608,-0.7154088554233473,1.0,0.0,0.0,0.0,1.0,0.0,0.0,0.0,1.0,0.0003101024776697159,0.0008357798797078431,0.00012298347428441037,1.2184696791468346e-07,0.0,0.0,0.0,1.2184696791468346e-07,0.0,0.0,0.0,1.2184696791468346e-07,0.14709975,0.41187930000000117,9.77723005,8.999999999999999e-08,0.0,0.0,0.0,8.999999999999999e-08,0.0,0.0,0.0,8.999999999999999e-08
1728916978.921024,195189,1728916978,911100480,base_link,-0.010134866363523527,0.01996030700493213,0.6983434280917636,-0.7154126970281601,1.0,0.0,0.0,0.0,1.0,0.0,0.0,0.0,1.0,-0.00010905019007623196,0.0007520425133407117,0.0011639357544481754,1.2184696791468346e-07,0.0,0.0,0.0,1.2184696791468346e-07,0.0,0.0,0.0,1.2184696791468346e-07,0.14709975,0.41187930000000117,9.77723005,8.999999999999999e-08,0.0,0.0,0.0,8.999999999999999e-08,0.0,0.0,0.0,8.999999999999999e-08
1728916979.0214462,195190,1728916979,11275072,base_link,-0.010103619460588522,0.01995685489425746,0.6983239935080567,-0.7154322056683531,1.0,0.0,0.0,0.0,1.0,0.0,0.0,0.0,1.0,-0.0007546001579612494,-0.0004002393689006568,-0.0008403686806559563,1.2184696791468346e-07,0.0,0.0,0.0,1.2184696791468346e-07,0.0,0.0,0.0,1.2184696791468346e-07,0.14709975,0.41187930000000117,9.77723005,8.999999999999999e-08,0.0,0.0,0.0,8.999999999999999e-08,0.0,0.0,0.0,8.999999999999999e-08
1728916979.1210508,195191,1728916979,111452480,base_link,-0.010112989560189278,0.019990349240080446,0.6982901908589275,-0.7154641309874435,1.0,0.0,0.0,0.0,1.0,0.0,0.0,0.0,1.0,0.001021652715280652,-0.0016051520360633729,0.0018489739159122112,1.2184696791468346e-07,0.0,0.0,0.0,1.2184696791468346e-07,0.0,0.0,0.0,1.2184696791468346e-07,0.14709975,0.41187930000000117,9.77723005,8.999999999999999e-08,0.0,0.0,0.0,8.999999999999999e-08,0.0,0.0,0.0,8.999999999999999e-08
1728916979.2212005,195192,1728916979,211630656,base_link,-0.010095892451198562,0.01998334804536547,0.6982895397374403,-0.7154652035213069,1.0,0.0,0.0,0.0,1.0,0.0,0.0,0.0,1.0,-0.00022771931253373623,-0.0003379676491022109,0.0010280725546181202,1.2184696791468346e-07,0.0,0.0,0.0,1.2184696791468346e-07,0.0,0.0,0.0,1.2184696791468346e-07,0.14709975,0.41187930000000117,9.77723005,8.999999999999999e-08,0.0,0.0,0.0,8.999999999999999e-08,0.0,0.0,0.0,8.999999999999999e-08
1728916979.3213897,195193,1728916979,311809344,base_link,-0.010132214638265358,0.019978456768638495,0.698255968779769,-0.7154975901811925,1.0,0.0,0.0,0.0,1.0,0.0,0.0,0.0,1.0,0.0021705632098019123,-0.0002802294911816714,0.0017335524316877127,1.2184696791468346e-07,0.0,0.0,0.0,1.2184696791468346e-07,0.0,0.0,0.0,1.2184696791468346e-07,0.16671305,0.4216859500000012,9.7674234,8.999999999999999e-08,0.0,0.0,0.0,8.999999999999999e-08,0.0,0.0,0.0,8.999999999999999e-08
1728916979.4246626,195194,1728916979,411986752,base_link,-0.010139348637880024,0.01998229507769719,0.6982591861719035,-0.7154942420587173,1.0,0.0,0.0,0.0,1.0,0.0,0.0,0.0,1.0,0.0005202458705753088,-0.0002740576164796948,0.0005060152616351843,1.2184696791468346e-07,0.0,0.0,0.0,1.2184696791468346e-07,0.0,0.0,0.0,1.2184696791468346e-07,0.16671305,0.4216859500000012,9.7674234,8.999999999999999e-08,0.0,0.0,0.0,8.999999999999999e-08,0.0,0.0,0.0,8.999999999999999e-08
1728916979.5223062,195195,1728916979,512163648,base_link,-0.010128422010922084,0.02001349173687853,0.6982637611245383,-0.7154890600954569,1.0,0.0,0.0,0.0,1.0,0.0,0.0,0.0,1.0,-7.391674444079399e-06,-0.0012481077574193475,0.0017144611338153484,1.2184696791468346e-07,0.0,0.0,0.0,1.2184696791468346e-07,0.0,0.0,0.0,1.2184696791468346e-07,0.16671305,0.4216859500000012,9.7674234,8.999999999999999e-08,0.0,0.0,0.0,8.999999999999999e-08,0.0,0.0,0.0,8.999999999999999e-08
1728916979.6224997,195196,1728916979,612340032,base_link,-0.010136515055859408,0.02003073029151704,0.6982395472156707,-0.7155120932664704,1.0,0.0,0.0,0.0,1.0,0.0,0.0,0.0,1.0,-0.0003216175828129053,0.00012122560292482376,4.823587369173764e-05,1.2184696791468346e-07,0.0,0.0,0.0,1.2184696791468346e-07,0.0,0.0,0.0,1.2184696791468346e-07,0.16671305,0.4216859500000012,9.7674234,8.999999999999999e-08,0.0,0.0,0.0,8.999999999999999e-08,0.0,0.0,0.0,8.999999999999999e-08
1728916979.722949,195197,1728916979,712515904,base_link,-0.010150240530547227,0.020035860934446436,0.6982321454648518,-0.7155189780385546,1.0,0.0,0.0,0.0,1.0,0.0,0.0,0.0,1.0,0.001994371647015214,-0.0003426725743338464,0.0014542979188263416,1.2184696791468346e-07,0.0,0.0,0.0,1.2184696791468346e-07,0.0,0.0,0.0,1.2184696791468346e-07,0.16671305,0.4216859500000012,9.7674234,8.999999999999999e-08,0.0,0.0,0.0,8.999999999999999e-08,0.0,0.0,0.0,8.999999999999999e-08
1728916979.8225648,195198,1728916979,812691008,base_link,-0.010187467006662766,0.020031152827283395,0.6982206681398083,-0.7155297806624108,1.0,0.0,0.0,0.0,1.0,0.0,0.0,0.0,1.0,6.590853445231915e-05,0.000855361926369369,-0.0003253950271755458,1.2184696791468346e-07,0.0,0.0,0.0,1.2184696791468346e-07,0.0,0.0,0.0,1.2184696791468346e-07,0.14709975,0.4020726500000012,9.7674234,8.999999999999999e-08,0.0,0.0,0.0,8.999999999999999e-08,0.0,0.0,0.0,8.999999999999999e-08
1728916979.9231057,195199,1728916979,912867392,base_link,-0.010208209428585763,0.020041534124134085,0.6982069712161324,-0.7155425596813988,1.0,0.0,0.0,0.0,1.0,0.0,0.0,0.0,1.0,-0.00012762774713337421,0.0014988426119089127,0.0002913551870733498,1.2184696791468346e-07,0.0,0.0,0.0,1.2184696791468346e-07,0.0,0.0,0.0,1.2184696791468346e-07,0.14709975,0.4020726500000012,9.7674234,8.999999999999999e-08,0.0,0.0,0.0,8.999999999999999e-08,0.0,0.0,0.0,8.999999999999999e-08
1728916980.0258036,195200,1728916980,13043008,base_link,-0.010203405487521402,0.02001243659826664,0.69821983340024,-0.7155308918169772,1.0,0.0,0.0,0.0,1.0,0.0,0.0,0.0,1.0,-0.00041248532943427563,-0.0006641723448410629,0.0011406871490180492,1.2184696791468346e-07,0.0,0.0,0.0,1.2184696791468346e-07,0.0,0.0,0.0,1.2184696791468346e-07,0.14709975,0.4020726500000012,9.7674234,8.999999999999999e-08,0.0,0.0,0.0,8.999999999999999e-08,0.0,0.0,0.0,8.999999999999999e-08
1728916980.1241968,195201,1728916980,113218624,base_link,-0.010224417876708278,0.020010245735411162,0.6981928413436888,-0.7155569911901618,1.0,0.0,0.0,0.0,1.0,0.0,0.0,0.0,1.0,-0.0014136799145489931,0.0016523698577657342,0.00038650655187666394,1.2184696791468346e-07,0.0,0.0,0.0,1.2184696791468346e-07,0.0,0.0,0.0,1.2184696791468346e-07,0.14709975,0.4020726500000012,9.7674234,8.999999999999999e-08,0.0,0.0,0.0,8.999999999999999e-08,0.0,0.0,0.0,8.999999999999999e-08
1728916980.2231054,195202,1728916980,213393216,base_link,-0.010223158159961056,0.020005787895152824,0.6981848616138198,-0.7155649198369229,1.0,0.0,0.0,0.0,1.0,0.0,0.0,0.0,1.0,-0.0010136968921869993,0.00010843563359230742,-0.0012681229272857308,1.2184696791468346e-07,0.0,0.0,0.0,1.2184696791468346e-07,0.0,0.0,0.0,1.2184696791468346e-07,0.14709975,0.4020726500000012,9.7674234,8.999999999999999e-08,0.0,0.0,0.0,8.999999999999999e-08,0.0,0.0,0.0,8.999999999999999e-08
1728916980.3233929,195203,1728916980,313567552,base_link,-0.010196134193441404,0.020035612654128468,0.6981833337562918,-0.7155659616960781,1.0,0.0,0.0,0.0,1.0,0.0,0.0,0.0,1.0,-0.000980268232524395,-0.0007140157977119088,0.00024534633848816167,1.2184696791468346e-07,0.0,0.0,0.0,1.2184696791468346e-07,0.0,0.0,0.0,1.2184696791468346e-07,0.1372931,0.41187930000000117,9.7674234,8.999999999999999e-08,0.0,0.0,0.0,8.999999999999999e-08,0.0,0.0,0.0,8.999999999999999e-08
1728916980.4269793,195204,1728916980,415744704,base_link,-0.010225384401514088,0.020022276773371348,0.6981814047300267,-0.7155677997477657,1.0,0.0,0.0,0.0,1.0,0.0,0.0,0.0,1.0,-0.0009440563153475523,0.0012587725650519133,0.0001362911425530909,1.2184696791468346e-07,0.0,0.0,0.0,1.2184696791468346e-07,0.0,0.0,0.0,1.2184696791468346e-07,0.1372931,0.41187930000000117,9.7674234,8.999999999999999e-08,0.0,0.0,0.0,8.999999999999999e-08,0.0,0.0,0.0,8.999999999999999e-08
1728916980.523338,195205,1728916980,513921344,base_link,-0.010179856345079494,0.020024945193552086,0.6981768991347173,-0.7155727703102037,1.0,0.0,0.0,0.0,1.0,0.0,0.0,0.0,1.0,8.09540506452322e-05,9.56824515014887e-05,6.817735265940426e-05,1.2184696791468346e-07,0.0,0.0,0.0,1.2184696791468346e-07,0.0,0.0,0.0,1.2184696791468346e-07,0.1372931,0.41187930000000117,9.7674234,8.999999999999999e-08,0.0,0.0,0.0,8.999999999999999e-08,0.0,0.0,0.0,8.999999999999999e-08
1728916980.6244206,195206,1728916980,614097472,base_link,-0.010170572561320628,0.020009137560986438,0.6981532003503069,-0.715596466389029,1.0,0.0,0.0,0.0,1.0,0.0,0.0,0.0,1.0,-0.0007965539116412401,0.00037479400634765647,0.0015768884913995862,1.2184696791468346e-07,0.0,0.0,0.0,1.2184696791468346e-07,0.0,0.0,0.0,1.2184696791468346e-07,0.1372931,0.41187930000000117,9.7674234,8.999999999999999e-08,0.0,0.0,0.0,8.999999999999999e-08,0.0,0.0,0.0,8.999999999999999e-08
1728916980.7379997,195207,1728916980,714273344,base_link,-0.01019451862971196,0.02001337481927702,0.698140103670848,-0.7156087843680436,1.0,0.0,0.0,0.0,1.0,0.0,0.0,0.0,1.0,0.000953818904235959,-0.0001606434816494582,0.0017707417719066143,1.2184696791468346e-07,0.0,0.0,0.0,1.2184696791468346e-07,0.0,0.0,0.0,1.2184696791468346e-07,0.1372931,0.41187930000000117,9.7674234,8.999999999999999e-08,0.0,0.0,0.0,8.999999999999999e-08,0.0,0.0,0.0,8.999999999999999e-08
1728916980.8244333,195208,1728916980,814450240,base_link,-0.010212309751803279,0.020001255936381933,0.6981279003705729,-0.7156207747226709,1.0,0.0,0.0,0.0,1.0,0.0,0.0,0.0,1.0,-0.000993954949080944,0.0006530813407152893,0.0015435661189258099,1.2184696791468346e-07,0.0,0.0,0.0,1.2184696791468346e-07,0.0,0.0,0.0,1.2184696791468346e-07,0.14709975,0.41187930000000117,9.75761675,8.999999999999999e-08,0.0,0.0,0.0,8.999999999999999e-08,0.0,0.0,0.0,8.999999999999999e-08
1728916980.9247885,195209,1728916980,914626112,base_link,-0.01021652791854938,0.019976365537356027,0.6980995053287359,-0.7156491095760419,1.0,0.0,0.0,0.0,1.0,0.0,0.0,0.0,1.0,0.0005021006800234318,0.0009020500001497568,0.00054028641898185,1.2184696791468346e-07,0.0,0.0,0.0,1.2184696791468346e-07,0.0,0.0,0.0,1.2184696791468346e-07,0.14709975,0.41187930000000117,9.75761675,8.999999999999999e-08,0.0,0.0,0.0,8.999999999999999e-08,0.0,0.0,0.0,8.999999999999999e-08
1728916981.0289638,195210,1728916981,14801728,base_link,-0.01021261550082807,0.019981090476999874,0.6980979207589041,-0.715650579221506,1.0,0.0,0.0,0.0,1.0,0.0,0.0,0.0,1.0,0.0005627640057355165,0.00040541688213124877,0.0005443887785077095,1.2184696791468346e-07,0.0,0.0,0.0,1.2184696791468346e-07,0.0,0.0,0.0,1.2184696791468346e-07,0.14709975,0.41187930000000117,9.75761675,8.999999999999999e-08,0.0,0.0,0.0,8.999999999999999e-08,0.0,0.0,0.0,8.999999999999999e-08
1728916981.124544,195211,1728916981,114976576,base_link,-0.010195878980281467,0.019992822017155343,0.6981045029702542,-0.7156440693894306,1.0,0.0,0.0,0.0,1.0,0.0,0.0,0.0,1.0,0.00026700436137616634,-0.0007259204285219312,-0.0003573540598154067,1.2184696791468346e-07,0.0,0.0,0.0,1.2184696791468346e-07,0.0,0.0,0.0,1.2184696791468346e-07,0.14709975,0.41187930000000117,9.75761675,8.999999999999999e-08,0.0,0.0,0.0,8.999999999999999e-08,0.0,0.0,0.0,8.999999999999999e-08
1728916981.2252507,195212,1728916981,215151168,base_link,-0.010183000250733732,0.020002814133198224,0.6980996121414507,-0.7156487444693816,1.0,0.0,0.0,0.0,1.0,0.0,0.0,0.0,1.0,0.000792493112385273,-0.0008003936382010579,4.089961294084797e-05,1.2184696791468346e-07,0.0,0.0,0.0,1.2184696791468346e-07,0.0,0.0,0.0,1.2184696791468346e-07,0.14709975,0.41187930000000117,9.75761675,8.999999999999999e-08,0.0,0.0,0.0,8.999999999999999e-08,0.0,0.0,0.0,8.999999999999999e-08
1728916981.326095,195213,1728916981,315326528,base_link,-0.010180313224168062,0.019978931219015686,0.6980746879376369,-0.7156737619829125,1.0,0.0,0.0,0.0,1.0,0.0,0.0,0.0,1.0,-0.0017400601645931602,0.0011057520750910044,0.0007496112375520169,1.2184696791468346e-07,0.0,0.0,0.0,1.2184696791468346e-07,0.0,0.0,0.0,1.2184696791468346e-07,0.12748645,0.41187930000000117,9.7674234,8.999999999999999e-08,0.0,0.0,0.0,8.999999999999999e-08,0.0,0.0,0.0,8.999999999999999e-08
1728916981.427564,195214,1728916981,417501376,base_link,-0.010210960443739736,0.019985166558724256,0.6980684453557,-0.7156792403047,1.0,0.0,0.0,0.0,1.0,0.0,0.0,0.0,1.0,0.0004723763559013605,-3.467034548521028e-05,0.00109286536462605,1.2184696791468346e-07,0.0,0.0,0.0,1.2184696791468346e-07,0.0,0.0,0.0,1.2184696791468346e-07,0.12748645,0.41187930000000117,9.7674234,8.999999999999999e-08,0.0,0.0,0.0,8.999999999999999e-08,0.0,0.0,0.0,8.999999999999999e-08
1728916981.5251777,195215,1728916981,515675968,base_link,-0.010189139268114844,0.019970238873469295,0.698071860951075,-0.7156766364417765,1.0,0.0,0.0,0.0,1.0,0.0,0.0,0.0,1.0,-0.0014769097324460745,-0.00039689627010375256,0.0006393914809450507,1.2184696791468346e-07,0.0,0.0,0.0,1.2184696791468346e-07,0.0,0.0,0.0,1.2184696791468346e-07,0.12748645,0.41187930000000117,9.7674234,8.999999999999999e-08,0.0,0.0,0.0,8.999999999999999e-08,0.0,0.0,0.0,8.999999999999999e-08
1728916981.6262658,195216,1728916981,615849792,base_link,-0.010182894664108596,0.019972302629617498,0.6980617320877296,-0.7156865472947003,1.0,0.0,0.0,0.0,1.0,0.0,0.0,0.0,1.0,0.00019479519687592983,-0.0008632189128547906,0.0012877369299530983,1.2184696791468346e-07,0.0,0.0,0.0,1.2184696791468346e-07,0.0,0.0,0.0,1.2184696791468346e-07,0.12748645,0.41187930000000117,9.7674234,8.999999999999999e-08,0.0,0.0,0.0,8.999999999999999e-08,0.0,0.0,0.0,8.999999999999999e-08
1728916981.7255142,195217,1728916981,716023104,base_link,-0.010188954553899628,0.01997871297919867,0.6980546353111658,-0.7156932040709821,1.0,0.0,0.0,0.0,1.0,0.0,0.0,0.0,1.0,0.0007284842431545258,-0.00037226674612611516,0.0012962857726961374,1.2184696791468346e-07,0.0,0.0,0.0,1.2184696791468346e-07,0.0,0.0,0.0,1.2184696791468346e-07,0.12748645,0.41187930000000117,9.7674234,8.999999999999999e-08,0.0,0.0,0.0,8.999999999999999e-08,0.0,0.0,0.0,8.999999999999999e-08
1728916981.8264234,195218,1728916981,816195648,base_link,-0.010181366434005204,0.019987521483418376,0.6980405590413192,-0.7157067952002194,1.0,0.0,0.0,0.0,1.0,0.0,0.0,0.0,1.0,-0.0008302752394229174,9.854708332568404e-05,-0.00018268718849867582,1.2184696791468346e-07,0.0,0.0,0.0,1.2184696791468346e-07,0.0,0.0,0.0,1.2184696791468346e-07,0.14709975,0.41187930000000117,9.77723005,8.999999999999999e-08,0.0,0.0,0.0,8.999999999999999e-08,0.0,0.0,0.0,8.999999999999999e-08
1728916981.926968,195219,1728916981,916369728,base_link,-0.010203240988074166,0.019976320516721265,0.698048726193428,-0.715698830760317,1.0,0.0,0.0,0.0,1.0,0.0,0.0,0.0,1.0,-4.9544963985681534e-05,0.0006139081087894738,0.0003378642722964286,1.2184696791468346e-07,0.0,0.0,0.0,1.2184696791468346e-07,0.0,0.0,0.0,1.2184696791468346e-07,0.14709975,0.41187930000000117,9.77723005,8.999999999999999e-08,0.0,0.0,0.0,8.999999999999999e-08,0.0,0.0,0.0,8.999999999999999e-08
1728916982.0269449,195220,1728916982,16543040,base_link,-0.010206730190692556,0.01997903150011094,0.6980304682535441,-0.7157165125584778,1.0,0.0,0.0,0.0,1.0,0.0,0.0,0.0,1.0,-1.8043676391243935e-05,0.0014338368782773616,0.0008978695259429512,1.2184696791468346e-07,0.0,0.0,0.0,1.2184696791468346e-07,0.0,0.0,0.0,1.2184696791468346e-07,0.14709975,0.41187930000000117,9.77723005,8.999999999999999e-08,0.0,0.0,0.0,8.999999999999999e-08,0.0,0.0,0.0,8.999999999999999e-08
1728916982.127532,195221,1728916982,116721216,base_link,-0.010206029451110555,0.01998155659060501,0.6980267263179168,-0.7157201015096274,1.0,0.0,0.0,0.0,1.0,0.0,0.0,0.0,1.0,-0.000323248328641057,-0.0002910613548010586,0.0011921580880880356,1.2184696791468346e-07,0.0,0.0,0.0,1.2184696791468346e-07,0.0,0.0,0.0,1.2184696791468346e-07,0.14709975,0.41187930000000117,9.77723005,8.999999999999999e-08,0.0,0.0,0.0,8.999999999999999e-08,0.0,0.0,0.0,8.999999999999999e-08
1728916982.230372,195222,1728916982,216899136,base_link,-0.010205637355897093,0.0200044718422234,0.6980042230905515,-0.715741413235415,1.0,0.0,0.0,0.0,1.0,0.0,0.0,0.0,1.0,-0.0006886383052915335,-0.0015466207405552268,0.0004260377027094366,1.2184696791468346e-07,0.0,0.0,0.0,1.2184696791468346e-07,0.0,0.0,0.0,1.2184696791468346e-07,0.14709975,0.41187930000000117,9.77723005,8.999999999999999e-08,0.0,0.0,0.0,8.999999999999999e-08,0.0,0.0,0.0,8.999999999999999e-08
1728916982.3274026,195223,1728916982,317076544,base_link,-0.010196860963706412,0.02002057908630528,0.6979912181722236,-0.7157537703665915,1.0,0.0,0.0,0.0,1.0,0.0,0.0,0.0,1.0,6.196927279233932e-05,-0.0007283680606633424,0.001102610258385539,1.2184696791468346e-07,0.0,0.0,0.0,1.2184696791468346e-07,0.0,0.0,0.0,1.2184696791468346e-07,0.1372931,0.4216859500000012,9.75761675,8.999999999999999e-08,0.0,0.0,0.0,8.999999999999999e-08,0.0,0.0,0.0,8.999999999999999e-08
1728916982.430108,195224,1728916982,419255488,base_link,-0.010195147195339115,0.02001194153589543,0.6980164742642119,-0.7157294061482928,1.0,0.0,0.0,0.0,1.0,0.0,0.0,0.0,1.0,-0.00038415612652897835,-0.0010105327237397434,-0.001663122442550957,1.2184696791468346e-07,0.0,0.0,0.0,1.2184696791468346e-07,0.0,0.0,0.0,1.2184696791468346e-07,0.1372931,0.4216859500000012,9.75761675,8.999999999999999e-08,0.0,0.0,0.0,8.999999999999999e-08,0.0,0.0,0.0,8.999999999999999e-08
1728916982.5391057,195225,1728916982,517433408,base_link,-0.010186482957668386,0.020020449846806947,0.6980321093917945,-0.7157140430443757,1.0,0.0,0.0,0.0,1.0,0.0,0.0,0.0,1.0,0.0005782314110547304,0.00042840949026867736,-0.0007810635725036263,1.2184696791468346e-07,0.0,0.0,0.0,1.2184696791468346e-07,0.0,0.0,0.0,1.2184696791468346e-07,0.1372931,0.4216859500000012,9.75761675,8.999999999999999e-08,0.0,0.0,0.0,8.999999999999999e-08,0.0,0.0,0.0,8.999999999999999e-08
1728916982.6275702,195226,1728916982,617610560,base_link,-0.010177370614801005,0.020012842839364563,0.6980207195390735,-0.7157254937076153,1.0,0.0,0.0,0.0,1.0,0.0,0.0,0.0,1.0,0.00011469610035419464,-9.090476669371123e-05,0.00044402561616152525,1.2184696791468346e-07,0.0,0.0,0.0,1.2184696791468346e-07,0.0,0.0,0.0,1.2184696791468346e-07,0.1372931,0.4216859500000012,9.75761675,8.999999999999999e-08,0.0,0.0,0.0,8.999999999999999e-08,0.0,0.0,0.0,8.999999999999999e-08
1728916982.7281969,195227,1728916982,717787200,base_link,-0.010192805101978656,0.020013560603361576,0.6980199281373947,-0.7157260258221683,1.0,0.0,0.0,0.0,1.0,0.0,0.0,0.0,1.0,0.0021786869037896395,-0.00019429356325417762,-0.00035432400181889534,1.2184696791468346e-07,0.0,0.0,0.0,1.2184696791468346e-07,0.0,0.0,0.0,1.2184696791468346e-07,0.1372931,0.4216859500000012,9.75761675,8.999999999999999e-08,0.0,0.0,0.0,8.999999999999999e-08,0.0,0.0,0.0,8.999999999999999e-08
1728916982.828251,195228,1728916982,817963328,base_link,-0.010215961670681568,0.020016103240050816,0.698043323934681,-0.7157028067909532,1.0,0.0,0.0,0.0,1.0,0.0,0.0,0.0,1.0,-0.0001299162395298481,0.0008399205398745834,-0.0009828924667090178,1.2184696791468346e-07,0.0,0.0,0.0,1.2184696791468346e-07,0.0,0.0,0.0,1.2184696791468346e-07,0.14709975,0.4216859500000012,9.77723005,8.999999999999999e-08,0.0,0.0,0.0,8.999999999999999e-08,0.0,0.0,0.0,8.999999999999999e-08
1728916982.9288034,195229,1728916982,918139200,base_link,-0.010203239693241347,0.020033180026218757,0.6980286707469333,-0.7157168018239258,1.0,0.0,0.0,0.0,1.0,0.0,0.0,0.0,1.0,0.0006503439508378506,-0.0003909269580617545,0.001581545453518629,1.2184696791468346e-07,0.0,0.0,0.0,1.2184696791468346e-07,0.0,0.0,0.0,1.2184696791468346e-07,0.14709975,0.4216859500000012,9.77723005,8.999999999999999e-08,0.0,0.0,0.0,8.999999999999999e-08,0.0,0.0,0.0,8.999999999999999e-08
1728916983.029387,195230,1728916983,18314560,base_link,-0.010177883423578499,0.020037567247311316,0.6980616668820084,-0.715684857893289,1.0,0.0,0.0,0.0,1.0,0.0,0.0,0.0,1.0,-0.0006017556879669428,-0.0003279391676187516,-0.0004707336192950606,1.2184696791468346e-07,0.0,0.0,0.0,1.2184696791468346e-07,0.0,0.0,0.0,1.2184696791468346e-07,0.14709975,0.4216859500000012,9.77723005,8.999999999999999e-08,0.0,0.0,0.0,8.999999999999999e-08,0.0,0.0,0.0,8.999999999999999e-08
1728916983.1293929,195231,1728916983,118490688,base_link,-0.010167097514477648,0.020029863246863868,0.6980763979242226,-0.7156708582634798,1.0,0.0,0.0,0.0,1.0,0.0,0.0,0.0,1.0,2.975878305733204e-05,-0.00015666265971958626,0.0009573519346304238,1.2184696791468346e-07,0.0,0.0,0.0,1.2184696791468346e-07,0.0,0.0,0.0,1.2184696791468346e-07,0.14709975,0.4216859500000012,9.77723005,8.999999999999999e-08,0.0,0.0,0.0,8.999999999999999e-08,0.0,0.0,0.0,8.999999999999999e-08
1728916983.228153,195232,1728916983,218666560,base_link,-0.010142231946445602,0.02006307845826274,0.6980683706263959,-0.7156781105671256,1.0,0.0,0.0,0.0,1.0,0.0,0.0,0.0,1.0,0.0002944129519164562,7.603561971336605e-05,0.00013412919361144304,1.2184696791468346e-07,0.0,0.0,0.0,1.2184696791468346e-07,0.0,0.0,0.0,1.2184696791468346e-07,0.14709975,0.4216859500000012,9.77723005,8.999999999999999e-08,0.0,0.0,0.0,8.999999999999999e-08,0.0,0.0,0.0,8.999999999999999e-08
1728916983.329411,195233,1728916983,318841664,base_link,-0.010158294116683704,0.02004720048671496,0.6980634439643584,-0.715683133107036,1.0,0.0,0.0,0.0,1.0,0.0,0.0,0.0,1.0,-0.0010420242324471474,0.000763153366278857,0.00031977042090147723,1.2184696791468346e-07,0.0,0.0,0.0,1.2184696791468346e-07,0.0,0.0,0.0,1.2184696791468346e-07,0.14709975,0.4020726500000012,9.77723005,8.999999999999999e-08,0.0,0.0,0.0,8.999999999999999e-08,0.0,0.0,0.0,8.999999999999999e-08
1728916983.4296486,195234,1728916983,419018816,base_link,-0.010133926059014973,0.02008128977117352,0.6980426732573602,-0.7157027816457576,1.0,0.0,0.0,0.0,1.0,0.0,0.0,0.0,1.0,0.0006047023925930262,-0.00018267624545842412,-0.0003142214845865965,1.2184696791468346e-07,0.0,0.0,0.0,1.2184696791468346e-07,0.0,0.0,0.0,1.2184696791468346e-07,0.14709975,0.4020726500000012,9.77723005,8.999999999999999e-08,0.0,0.0,0.0,8.999999999999999e-08,0.0,0.0,0.0,8.999999999999999e-08
1728916983.5293682,195235,1728916983,519195968,base_link,-0.01013572236752061,0.02007712566279835,0.698028793999666,-0.7157164095537983,1.0,0.0,0.0,0.0,1.0,0.0,0.0,0.0,1.0,0.00016479147598147392,0.00026274286210536957,-5.034462083131078e-05,1.2184696791468346e-07,0.0,0.0,0.0,1.2184696791468346e-07,0.0,0.0,0.0,1.2184696791468346e-07,0.14709975,0.4020726500000012,9.77723005,8.999999999999999e-08,0.0,0.0,0.0,8.999999999999999e-08,0.0,0.0,0.0,8.999999999999999e-08
1728916983.6295805,195236,1728916983,619372608,base_link,-0.010088365951054844,0.020083565453231585,0.6980246068479683,-0.7157209816023719,1.0,0.0,0.0,0.0,1.0,0.0,0.0,0.0,1.0,-0.0009004692547023296,-0.00020118465181440118,-0.0001639231340959668,1.2184696791468346e-07,0.0,0.0,0.0,1.2184696791468346e-07,0.0,0.0,0.0,1.2184696791468346e-07,0.14709975,0.4020726500000012,9.77723005,8.999999999999999e-08,0.0,0.0,0.0,8.999999999999999e-08,0.0,0.0,0.0,8.999999999999999e-08
1728916983.7296767,195237,1728916983,719549760,base_link,-0.010082137874581875,0.020088355067324412,0.6980196058214324,-0.7157258122880991,1.0,0.0,0.0,0.0,1.0,0.0,0.0,0.0,1.0,0.0001387614756822586,-0.0007033770671114324,0.0008869072771631182,1.2184696791468346e-07,0.0,0.0,0.0,1.2184696791468346e-07,0.0,0.0,0.0,1.2184696791468346e-07,0.14709975,0.4020726500000012,9.77723005,8.999999999999999e-08,0.0,0.0,0.0,8.999999999999999e-08,0.0,0.0,0.0,8.999999999999999e-08
1728916983.8298724,195238,1728916983,819726912,base_link,-0.010097483470879623,0.02010218673037816,0.6980049529628948,-0.7157394976913594,1.0,0.0,0.0,0.0,1.0,0.0,0.0,0.0,1.0,0.00010350951924920082,0.0006087335641495885,0.0010025175288319588,1.2184696791468346e-07,0.0,0.0,0.0,1.2184696791468346e-07,0.0,0.0,0.0,1.2184696791468346e-07,0.1372931,0.41187930000000117,9.77723005,8.999999999999999e-08,0.0,0.0,0.0,8.999999999999999e-08,0.0,0.0,0.0,8.999999999999999e-08
1728916983.9306912,195239,1728916983,919903296,base_link,-0.010081599707192428,0.020087992711569014,0.69799085104972,-0.7157538723241749,1.0,0.0,0.0,0.0,1.0,0.0,0.0,0.0,1.0,0.0006154794245958328,-0.0009485667105764151,0.0003316111396998168,1.2184696791468346e-07,0.0,0.0,0.0,1.2184696791468346e-07,0.0,0.0,0.0,1.2184696791468346e-07,0.1372931,0.41187930000000117,9.77723005,8.999999999999999e-08,0.0,0.0,0.0,8.999999999999999e-08,0.0,0.0,0.0,8.999999999999999e-08
1728916984.0305805,195240,1728916984,20079168,base_link,-0.010072463110322671,0.02010744289694011,0.6980035267557451,-0.7157410934573891,1.0,0.0,0.0,0.0,1.0,0.0,0.0,0.0,1.0,0.0017497357912361622,0.0002442331751808524,-5.019851960241797e-05,1.2184696791468346e-07,0.0,0.0,0.0,1.2184696791468346e-07,0.0,0.0,0.0,1.2184696791468346e-07,0.1372931,0.41187930000000117,9.77723005,8.999999999999999e-08,0.0,0.0,0.0,8.999999999999999e-08,0.0,0.0,0.0,8.999999999999999e-08
1728916984.1304908,195241,1728916984,120254528,base_link,-0.010090061553602219,0.02007757627140505,0.6980121451437372,-0.7157332791066439,1.0,0.0,0.0,0.0,1.0,0.0,0.0,0.0,1.0,-0.0009588382672518492,0.0013296627439558506,0.0005043016280978916,1.2184696791468346e-07,0.0,0.0,0.0,1.2184696791468346e-07,0.0,0.0,0.0,1.2184696791468346e-07,0.1372931,0.41187930000000117,9.77723005,8.999999999999999e-08,0.0,0.0,0.0,8.999999999999999e-08,0.0,0.0,0.0,8.999999999999999e-08
1728916984.2306416,195242,1728916984,220429376,base_link,-0.010078135630219073,0.020075141539400577,0.6980310803110279,-0.7157150486011952,1.0,0.0,0.0,0.0,1.0,0.0,0.0,0.0,1.0,-0.0006437175907194614,-0.0016890456900000572,-0.0001311827218160031,1.2184696791468346e-07,0.0,0.0,0.0,1.2184696791468346e-07,0.0,0.0,0.0,1.2184696791468346e-07,0.1372931,0.41187930000000117,9.77723005,8.999999999999999e-08,0.0,0.0,0.0,8.999999999999999e-08,0.0,0.0,0.0,8.999999999999999e-08
1728916984.332168,195243,1728916984,320605504,base_link,-0.010106118676952875,0.020066283955402803,0.6980297919200391,-0.7157161589663706,1.0,0.0,0.0,0.0,1.0,0.0,0.0,0.0,1.0,0.0005158786661922932,9.059812873601908e-05,-0.0004427331732586026,1.2184696791468346e-07,0.0,0.0,0.0,1.2184696791468346e-07,0.0,0.0,0.0,1.2184696791468346e-07,0.14709975,0.4020726500000012,9.77723005,8.999999999999999e-08,0.0,0.0,0.0,8.999999999999999e-08,0.0,0.0,0.0,8.999999999999999e-08
1728916984.4319327,195244,1728916984,420780864,base_link,-0.010116251684963409,0.02007294584741893,0.6980321603983883,-0.7157135190468401,1.0,0.0,0.0,0.0,1.0,0.0,0.0,0.0,1.0,0.000905345194041729,0.00104935048148036,0.00029162887949496497,1.2184696791468346e-07,0.0,0.0,0.0,1.2184696791468346e-07,0.0,0.0,0.0,1.2184696791468346e-07,0.14709975,0.4020726500000012,9.77723005,8.999999999999999e-08,0.0,0.0,0.0,8.999999999999999e-08,0.0,0.0,0.0,8.999999999999999e-08
1728916984.5321434,195245,1728916984,520955456,base_link,-0.01013237043698782,0.020071760147271116,0.6980018048033123,-0.7157429287147983,1.0,0.0,0.0,0.0,1.0,0.0,0.0,0.0,1.0,-0.0002851549070328474,-0.00029576115775853374,0.0019108729902654886,1.2184696791468346e-07,0.0,0.0,0.0,1.2184696791468346e-07,0.0,0.0,0.0,1.2184696791468346e-07,0.14709975,0.4020726500000012,9.77723005,8.999999999999999e-08,0.0,0.0,0.0,8.999999999999999e-08,0.0,0.0,0.0,8.999999999999999e-08
1728916984.6305707,195246,1728916984,621129536,base_link,-0.01012781031462998,0.020097271164995278,0.6979988570117107,-0.7157451521039433,1.0,0.0,0.0,0.0,1.0,0.0,0.0,0.0,1.0,-0.00022517074830830097,8.681765757501136e-05,0.0008814774337224662,1.2184696791468346e-07,0.0,0.0,0.0,1.2184696791468346e-07,0.0,0.0,0.0,1.2184696791468346e-07,0.14709975,0.4020726500000012,9.77723005,8.999999999999999e-08,0.0,0.0,0.0,8.999999999999999e-08,0.0,0.0,0.0,8.999999999999999e-08
1728916984.7317948,195247,1728916984,721303360,base_link,-0.010103338310540616,0.020084370019834884,0.6980098146469925,-0.7157351739940969,1.0,0.0,0.0,0.0,1.0,0.0,0.0,0.0,1.0,-0.0008805680554360151,4.7248671762645306e-05,0.0004997275536879897,1.2184696791468346e-07,0.0,0.0,0.0,1.2184696791468346e-07,0.0,0.0,0.0,1.2184696791468346e-07,0.14709975,0.4020726500000012,9.77723005,8.999999999999999e-08,0.0,0.0,0.0,8.999999999999999e-08,0.0,0.0,0.0,8.999999999999999e-08
1728916984.8314393,195248,1728916984,821478464,base_link,-0.010109264516474686,0.02004340886955208,0.698019006817156,-0.7157272739345728,1.0,0.0,0.0,0.0,1.0,0.0,0.0,0.0,1.0,-0.0010987918358296156,0.0020291830878704786,-0.000649508321657777,1.2184696791468346e-07,0.0,0.0,0.0,1.2184696791468346e-07,0.0,0.0,0.0,1.2184696791468346e-07,0.14709975,0.41187930000000117,9.77723005,8.999999999999999e-08,0.0,0.0,0.0,8.999999999999999e-08,0.0,0.0,0.0,8.999999999999999e-08
1728916984.932389,195249,1728916984,921655360,base_link,-0.01011563422725622,0.020029482254380542,0.6980399731892161,-0.7157071255861579,1.0,0.0,0.0,0.0,1.0,0.0,0.0,0.0,1.0,-0.0007617035880684853,-0.0003515901044011116,-1.9894214347004846e-05,1.2184696791468346e-07,0.0,0.0,0.0,1.2184696791468346e-07,0.0,0.0,0.0,1.2184696791468346e-07,0.14709975,0.41187930000000117,9.77723005,8.999999999999999e-08,0.0,0.0,0.0,8.999999999999999e-08,0.0,0.0,0.0,8.999999999999999e-08
1728916985.0312736,195250,1728916985,21832000,base_link,-0.010094877393843295,0.020053271070743166,0.6980447608814984,-0.7157020829756319,1.0,0.0,0.0,0.0,1.0,0.0,0.0,0.0,1.0,-0.0007802578620612621,-0.0010183185804635286,-2.7237692847846693e-06,1.2184696791468346e-07,0.0,0.0,0.0,1.2184696791468346e-07,0.0,0.0,0.0,1.2184696791468346e-07,0.14709975,0.41187930000000117,9.77723005,8.999999999999999e-08,0.0,0.0,0.0,8.999999999999999e-08,0.0,0.0,0.0,8.999999999999999e-08
1728916985.1330934,195251,1728916985,122010176,base_link,-0.010068459969594322,0.020062331423272625,0.6980474943089459,-0.7156995351826808,1.0,0.0,0.0,0.0,1.0,0.0,0.0,0.0,1.0,-6.03462103754282e-05,-0.0002103472361341119,-0.00020055705681443212,1.2184696791468346e-07,0.0,0.0,0.0,1.2184696791468346e-07,0.0,0.0,0.0,1.2184696791468346e-07,0.14709975,0.41187930000000117,9.77723005,8.999999999999999e-08,0.0,0.0,0.0,8.999999999999999e-08,0.0,0.0,0.0,8.999999999999999e-08
1728916985.2330813,195252,1728916985,222187328,base_link,-0.0100641694273943,0.02003584582449726,0.6980619070536445,-0.7156862799414717,1.0,0.0,0.0,0.0,1.0,0.0,0.0,0.0,1.0,-0.0005916620139032602,-0.0008611278608441352,0.0007539885118603707,1.2184696791468346e-07,0.0,0.0,0.0,1.2184696791468346e-07,0.0,0.0,0.0,1.2184696791468346e-07,0.14709975,0.41187930000000117,9.77723005,8.999999999999999e-08,0.0,0.0,0.0,8.999999999999999e-08,0.0,0.0,0.0,8.999999999999999e-08
1728916985.332453,195253,1728916985,322364480,base_link,-0.010068354739275078,0.020044263552147806,0.6980850517953667,-0.7156634098452682,1.0,0.0,0.0,0.0,1.0,0.0,0.0,0.0,1.0,-0.0009613428264856339,0.0009060760494321584,-0.00045931688509881507,1.2184696791468346e-07,0.0,0.0,0.0,1.2184696791468346e-07,0.0,0.0,0.0,1.2184696791468346e-07,0.14709975,0.41187930000000117,9.75761675,8.999999999999999e-08,0.0,0.0,0.0,8.999999999999999e-08,0.0,0.0,0.0,8.999999999999999e-08
1728916985.432675,195254,1728916985,422541376,base_link,-0.010044668748084537,0.02000989072313751,0.6981167602632021,-0.7156337736179029,1.0,0.0,0.0,0.0,1.0,0.0,0.0,0.0,1.0,0.0003670186270028353,-0.0007669202750548721,-0.0005428920267149805,1.2184696791468346e-07,0.0,0.0,0.0,1.2184696791468346e-07,0.0,0.0,0.0,1.2184696791468346e-07,0.14709975,0.41187930000000117,9.75761675,8.999999999999999e-08,0.0,0.0,0.0,8.999999999999999e-08,0.0,0.0,0.0,8.999999999999999e-08
1728916985.532723,195255,1728916985,522717248,base_link,-0.010016028858329742,0.020004674987716704,0.6981530134553722,-0.7155989532885916,1.0,0.0,0.0,0.0,1.0,0.0,0.0,0.0,1.0,-0.0007298779673874378,-0.0005069784820079806,-0.0015791597543284297,1.2184696791468346e-07,0.0,0.0,0.0,1.2184696791468346e-07,0.0,0.0,0.0,1.2184696791468346e-07,0.14709975,0.41187930000000117,9.75761675,8.999999999999999e-08,0.0,0.0,0.0,8.999999999999999e-08,0.0,0.0,0.0,8.999999999999999e-08
1728916985.633333,195256,1728916985,622892352,base_link,-0.010019441363240619,0.01999995725594639,0.6981559633497975,-0.7155961593969362,1.0,0.0,0.0,0.0,1.0,0.0,0.0,0.0,1.0,0.0004232581704854965,0.0003224352840334178,0.0007442969363182783,1.2184696791468346e-07,0.0,0.0,0.0,1.2184696791468346e-07,0.0,0.0,0.0,1.2184696791468346e-07,0.14709975,0.41187930000000117,9.75761675,8.999999999999999e-08,0.0,0.0,0.0,8.999999999999999e-08,0.0,0.0,0.0,8.999999999999999e-08
1728916985.7345755,195257,1728916985,723068736,base_link,-0.009996669071657397,0.01998093506887721,0.698147974629243,-0.715604803199595,1.0,0.0,0.0,0.0,1.0,0.0,0.0,0.0,1.0,0.0005007130093872547,0.00010715995449572814,0.0010508724953979254,1.2184696791468346e-07,0.0,0.0,0.0,1.2184696791468346e-07,0.0,0.0,0.0,1.2184696791468346e-07,0.14709975,0.41187930000000117,9.75761675,8.999999999999999e-08,0.0,0.0,0.0,8.999999999999999e-08,0.0,0.0,0.0,8.999999999999999e-08
1728916985.8478222,195258,1728916985,823244864,base_link,-0.010045351941571383,0.01995475552586886,0.6981621935943235,-0.71559097959088,1.0,0.0,0.0,0.0,1.0,0.0,0.0,0.0,1.0,0.00031846901401877403,0.0008341894717887044,5.65466471016406e-05,1.2184696791468346e-07,0.0,0.0,0.0,1.2184696791468346e-07,0.0,0.0,0.0,1.2184696791468346e-07,0.14709975,0.39226600000000117,9.7674234,8.999999999999999e-08,0.0,0.0,0.0,8.999999999999999e-08,0.0,0.0,0.0,8.999999999999999e-08
1728916985.9335613,195259,1728916985,923419456,base_link,-0.010035966645801697,0.019979899207041435,0.6981659183206208,-0.7155867756580506,1.0,0.0,0.0,0.0,1.0,0.0,0.0,0.0,1.0,0.0013840892352163792,-0.0007953132735565304,0.0007347450009547175,1.2184696791468346e-07,0.0,0.0,0.0,1.2184696791468346e-07,0.0,0.0,0.0,1.2184696791468346e-07,0.14709975,0.39226600000000117,9.7674234,8.999999999999999e-08,0.0,0.0,0.0,8.999999999999999e-08,0.0,0.0,0.0,8.999999999999999e-08
1728916986.0336957,195260,1728916986,23594304,base_link,-0.010025428874541375,0.019978400396952478,0.6981879797267007,-0.7155654402349297,1.0,0.0,0.0,0.0,1.0,0.0,0.0,0.0,1.0,0.0005390392616391182,0.0002127903280779719,-0.0001684490125626326,1.2184696791468346e-07,0.0,0.0,0.0,1.2184696791468346e-07,0.0,0.0,0.0,1.2184696791468346e-07,0.14709975,0.39226600000000117,9.7674234,8.999999999999999e-08,0.0,0.0,0.0,8.999999999999999e-08,0.0,0.0,0.0,8.999999999999999e-08
1728916986.1336272,195261,1728916986,123768384,base_link,-0.010043751509176871,0.01995783200602254,0.6981916330879107,-0.7155621926033248,1.0,0.0,0.0,0.0,1.0,0.0,0.0,0.0,1.0,0.0004908640403300524,3.335590008646256e-05,0.0005108067998662591,1.2184696791468346e-07,0.0,0.0,0.0,1.2184696791468346e-07,0.0,0.0,0.0,1.2184696791468346e-07,0.14709975,0.39226600000000117,9.7674234,8.999999999999999e-08,0.0,0.0,0.0,8.999999999999999e-08,0.0,0.0,0.0,8.999999999999999e-08
1728916986.2337523,195262,1728916986,223941440,base_link,-0.010049373849690844,0.019936752016384653,0.6982188546512726,-0.7155361395581158,1.0,0.0,0.0,0.0,1.0,0.0,0.0,0.0,1.0,-0.0004522642120718956,-0.0012403619475662708,-0.0005164745962247251,1.2184696791468346e-07,0.0,0.0,0.0,1.2184696791468346e-07,0.0,0.0,0.0,1.2184696791468346e-07,0.14709975,0.39226600000000117,9.7674234,8.999999999999999e-08,0.0,0.0,0.0,8.999999999999999e-08,0.0,0.0,0.0,8.999999999999999e-08
1728916986.334382,195263,1728916986,324116288,base_link,-0.010049909943519583,0.019959316520909886,0.6982405706394955,-0.7155143118814444,1.0,0.0,0.0,0.0,1.0,0.0,0.0,0.0,1.0,0.000840253196656704,-0.0002554660895839335,-0.0012150551192462444,1.2184696791468346e-07,0.0,0.0,0.0,1.2184696791468346e-07,0.0,0.0,0.0,1.2184696791468346e-07,0.1372931,0.4020726500000012,9.77723005,8.999999999999999e-08,0.0,0.0,0.0,8.999999999999999e-08,0.0,0.0,0.0,8.999999999999999e-08
1728916986.4352877,195264,1728916986,424293184,base_link,-0.010011836072171973,0.0199656065512397,0.69824620101588,-0.7155091756647123,1.0,0.0,0.0,0.0,1.0,0.0,0.0,0.0,1.0,-0.0005306010134518147,-0.0006817014655098319,0.00027126085478812467,1.2184696791468346e-07,0.0,0.0,0.0,1.2184696791468346e-07,0.0,0.0,0.0,1.2184696791468346e-07,0.1372931,0.4020726500000012,9.77723005,8.999999999999999e-08,0.0,0.0,0.0,8.999999999999999e-08,0.0,0.0,0.0,8.999999999999999e-08
1728916986.5348506,195265,1728916986,524470080,base_link,-0.01000330665458216,0.019958234580476034,0.6982595524606744,-0.7154964710785259,1.0,0.0,0.0,0.0,1.0,0.0,0.0,0.0,1.0,0.0004157254006713629,3.7712743505835038e-06,-0.00040348770562559366,1.2184696791468346e-07,0.0,0.0,0.0,1.2184696791468346e-07,0.0,0.0,0.0,1.2184696791468346e-07,0.1372931,0.4020726500000012,9.77723005,8.999999999999999e-08,0.0,0.0,0.0,8.999999999999999e-08,0.0,0.0,0.0,8.999999999999999e-08
1728916986.635872,195266,1728916986,624647232,base_link,-0.010004623814628029,0.01997551451987669,0.6982489925276016,-0.7155062758328423,1.0,0.0,0.0,0.0,1.0,0.0,0.0,0.0,1.0,0.0016790344379842281,0.0008029167656786742,0.00138446397613734,1.2184696791468346e-07,0.0,0.0,0.0,1.2184696791468346e-07,0.0,0.0,0.0,1.2184696791468346e-07,0.1372931,0.4020726500000012,9.77723005,8.999999999999999e-08,0.0,0.0,0.0,8.999999999999999e-08,0.0,0.0,0.0,8.999999999999999e-08
1728916986.735078,195267,1728916986,724824384,base_link,-0.010011396328765979,0.019996723393883552,0.6982687813334929,-0.7154862766064036,1.0,0.0,0.0,0.0,1.0,0.0,0.0,0.0,1.0,5.3592026233673096e-05,6.072525866329673e-05,0.00024354492779821157,1.2184696791468346e-07,0.0,0.0,0.0,1.2184696791468346e-07,0.0,0.0,0.0,1.2184696791468346e-07,0.1372931,0.4020726500000012,9.77723005,8.999999999999999e-08,0.0,0.0,0.0,8.999999999999999e-08,0.0,0.0,0.0,8.999999999999999e-08
1728916986.8343287,195268,1728916986,825000512,base_link,-0.009982236089813004,0.019992569882010525,0.6982655769311178,-0.7154899273820796,1.0,0.0,0.0,0.0,1.0,0.0,0.0,0.0,1.0,-0.0005136672407388687,-0.0005354786990210414,-7.842294871807092e-05,1.2184696791468346e-07,0.0,0.0,0.0,1.2184696791468346e-07,0.0,0.0,0.0,1.2184696791468346e-07,0.12748645,0.41187930000000117,9.75761675,8.999999999999999e-08,0.0,0.0,0.0,8.999999999999999e-08,0.0,0.0,0.0,8.999999999999999e-08
1728916986.9425375,195269,1728916986,925176640,base_link,-0.009997659834970462,0.020010169799220517,0.6982443386118107,-0.7155099464710365,1.0,0.0,0.0,0.0,1.0,0.0,0.0,0.0,1.0,0.0008450960740447044,8.982419967651359e-05,-0.0006951675750315189,1.2184696791468346e-07,0.0,0.0,0.0,1.2184696791468346e-07,0.0,0.0,0.0,1.2184696791468346e-07,0.12748645,0.41187930000000117,9.75761675,8.999999999999999e-08,0.0,0.0,0.0,8.999999999999999e-08,0.0,0.0,0.0,8.999999999999999e-08
1728916987.0362575,195270,1728916987,25351744,base_link,-0.0099987606918746,0.020049848581794025,0.6982710241215332,-0.715482777730351,1.0,0.0,0.0,0.0,1.0,0.0,0.0,0.0,1.0,0.0017074043862521648,-0.0005418778164312245,-0.0011097157839685678,1.2184696791468346e-07,0.0,0.0,0.0,1.2184696791468346e-07,0.0,0.0,0.0,1.2184696791468346e-07,0.12748645,0.41187930000000117,9.75761675,8.999999999999999e-08,0.0,0.0,0.0,8.999999999999999e-08,0.0,0.0,0.0,8.999999999999999e-08
1728916987.1355534,195271,1728916987,125528128,base_link,-0.010014259753871336,0.020080564078962873,0.6982727040957513,-0.7154800600035336,1.0,0.0,0.0,0.0,1.0,0.0,0.0,0.0,1.0,-9.482260793447495e-06,-3.476219717413188e-05,-6.343366112560034e-05,1.2184696791468346e-07,0.0,0.0,0.0,1.2184696791468346e-07,0.0,0.0,0.0,1.2184696791468346e-07,0.12748645,0.41187930000000117,9.75761675,8.999999999999999e-08,0.0,0.0,0.0,8.999999999999999e-08,0.0,0.0,0.0,8.999999999999999e-08
1728916987.235692,195272,1728916987,225704000,base_link,-0.010022431352059878,0.02007874867179009,0.6982768501383629,-0.7154759501775126,1.0,0.0,0.0,0.0,1.0,0.0,0.0,0.0,1.0,-0.00020991195924580097,-0.0006279938388615846,0.0008408034336753191,1.2184696791468346e-07,0.0,0.0,0.0,1.2184696791468346e-07,0.0,0.0,0.0,1.2184696791468346e-07,0.12748645,0.41187930000000117,9.75761675,8.999999999999999e-08,0.0,0.0,0.0,8.999999999999999e-08,0.0,0.0,0.0,8.999999999999999e-08
1728916987.3358657,195273,1728916987,325879104,base_link,-0.010027036848189804,0.020076937425680844,0.6982970375216354,-0.7154562338145904,1.0,0.0,0.0,0.0,1.0,0.0,0.0,0.0,1.0,-0.0009543553460389376,0.0004665264277718961,0.000137349241413176,1.2184696791468346e-07,0.0,0.0,0.0,1.2184696791468346e-07,0.0,0.0,0.0,1.2184696791468346e-07,0.1569064,0.41187930000000117,9.75761675,8.999999999999999e-08,0.0,0.0,0.0,8.999999999999999e-08,0.0,0.0,0.0,8.999999999999999e-08
1728916987.4358838,195274,1728916987,426053952,base_link,-0.010013220160313975,0.0200714718579728,0.6983006089940234,-0.7154530948413402,1.0,0.0,0.0,0.0,1.0,0.0,0.0,0.0,1.0,0.00029743905179202557,-0.000646512839011848,-0.0003495389828458428,1.2184696791468346e-07,0.0,0.0,0.0,1.2184696791468346e-07,0.0,0.0,0.0,1.2184696791468346e-07,0.1569064,0.41187930000000117,9.75761675,8.999999999999999e-08,0.0,0.0,0.0,8.999999999999999e-08,0.0,0.0,0.0,8.999999999999999e-08
1728916987.5382586,195275,1728916987,526228288,base_link,-0.010022769775723367,0.02008183117358374,0.6982858917232596,-0.715467034574613,1.0,0.0,0.0,0.0,1.0,0.0,0.0,0.0,1.0,0.001046626828610897,0.00010023196227848545,0.0012076746206730604,1.2184696791468346e-07,0.0,0.0,0.0,1.2184696791468346e-07,0.0,0.0,0.0,1.2184696791468346e-07,0.1569064,0.41187930000000117,9.75761675,8.999999999999999e-08,0.0,0.0,0.0,8.999999999999999e-08,0.0,0.0,0.0,8.999999999999999e-08
1728916987.6366737,195276,1728916987,626402112,base_link,-0.01000524865610777,0.020088309485168973,0.6982506406538758,-0.7155015008005291,1.0,0.0,0.0,0.0,1.0,0.0,0.0,0.0,1.0,5.067908205091953e-05,-0.0006517731817439196,0.0019195681670680642,1.2184696791468346e-07,0.0,0.0,0.0,1.2184696791468346e-07,0.0,0.0,0.0,1.2184696791468346e-07,0.1569064,0.41187930000000117,9.75761675,8.999999999999999e-08,0.0,0.0,0.0,8.999999999999999e-08,0.0,0.0,0.0,8.999999999999999e-08
1728916987.7374718,195277,1728916987,726578752,base_link,-0.00999630135764641,0.020084138736671385,0.6982212373567284,-0.7155304361342096,1.0,0.0,0.0,0.0,1.0,0.0,0.0,0.0,1.0,-0.0006430237554013729,-0.0001552021130919455,0.0010696672834455967,1.2184696791468346e-07,0.0,0.0,0.0,1.2184696791468346e-07,0.0,0.0,0.0,1.2184696791468346e-07,0.1569064,0.41187930000000117,9.75761675,8.999999999999999e-08,0.0,0.0,0.0,8.999999999999999e-08,0.0,0.0,0.0,8.999999999999999e-08
1728916987.8377116,195278,1728916987,826755136,base_link,-0.009984311055733521,0.0200742156206634,0.6982081258844925,-0.7155436760595555,1.0,0.0,0.0,0.0,1.0,0.0,0.0,0.0,1.0,0.00028658355586230755,0.0012633958831429484,0.002012495184317231,1.2184696791468346e-07,0.0,0.0,0.0,1.2184696791468346e-07,0.0,0.0,0.0,1.2184696791468346e-07,0.1372931,0.41187930000000117,9.75761675,8.999999999999999e-08,0.0,0.0,0.0,8.999999999999999e-08,0.0,0.0,0.0,8.999999999999999e-08
1728916987.936625,195279,1728916987,926931264,base_link,-0.00996519268382226,0.02008315226073236,0.6981773241072748,-0.7155737460475,1.0,0.0,0.0,0.0,1.0,0.0,0.0,0.0,1.0,-0.0014264960773289204,-0.0006503055337816476,0.0011299526086077094,1.2184696791468346e-07,0.0,0.0,0.0,1.2184696791468346e-07,0.0,0.0,0.0,1.2184696791468346e-07,0.1372931,0.41187930000000117,9.75761675,8.999999999999999e-08,0.0,0.0,0.0,8.999999999999999e-08,0.0,0.0,0.0,8.999999999999999e-08
1728916988.0367513,195280,1728916988,27108160,base_link,-0.009950536662111377,0.020090401513730146,0.6981372662799997,-0.7156128282935137,1.0,0.0,0.0,0.0,1.0,0.0,0.0,0.0,1.0,8.280901238322258e-05,0.0010373897384852173,0.0016259984113276003,1.2184696791468346e-07,0.0,0.0,0.0,1.2184696791468346e-07,0.0,0.0,0.0,1.2184696791468346e-07,0.1372931,0.41187930000000117,9.75761675,8.999999999999999e-08,0.0,0.0,0.0,8.999999999999999e-08,0.0,0.0,0.0,8.999999999999999e-08
1728916988.1375177,195281,1728916988,127284288,base_link,-0.009936129016600539,0.020089582088954342,0.6981186023735443,-0.7156312591353634,1.0,0.0,0.0,0.0,1.0,0.0,0.0,0.0,1.0,-0.0008827405981719494,-0.00045533035881817335,0.0003655066248029471,1.2184696791468346e-07,0.0,0.0,0.0,1.2184696791468346e-07,0.0,0.0,0.0,1.2184696791468346e-07,0.1372931,0.41187930000000117,9.75761675,8.999999999999999e-08,0.0,0.0,0.0,8.999999999999999e-08,0.0,0.0,0.0,8.999999999999999e-08
1728916988.2380123,195282,1728916988,227460160,base_link,-0.009938943104190847,0.020092852921724344,0.698105365349136,-0.7156440410862001,1.0,0.0,0.0,0.0,1.0,0.0,0.0,0.0,1.0,0.0008628719951957464,-0.0010990479495376346,0.0011538837570697071,1.2184696791468346e-07,0.0,0.0,0.0,1.2184696791468346e-07,0.0,0.0,0.0,1.2184696791468346e-07,0.1372931,0.41187930000000117,9.75761675,8.999999999999999e-08,0.0,0.0,0.0,8.999999999999999e-08,0.0,0.0,0.0,8.999999999999999e-08
1728916988.3379455,195283,1728916988,327635520,base_link,-0.00993087898083385,0.020121517076068504,0.6980818444973913,-0.7156662913511753,1.0,0.0,0.0,0.0,1.0,0.0,0.0,0.0,1.0,-0.0006588166579604149,0.0005325777456164361,0.0010643230052664876,1.2184696791468346e-07,0.0,0.0,0.0,1.2184696791468346e-07,0.0,0.0,0.0,1.2184696791468346e-07,0.1372931,0.4020726500000012,9.75761675,8.999999999999999e-08,0.0,0.0,0.0,8.999999999999999e-08,0.0,0.0,0.0,8.999999999999999e-08
1728916988.437718,195284,1728916988,427810112,base_link,-0.009928710990075426,0.02012006368922977,0.6980499658446678,-0.715697456275677,1.0,0.0,0.0,0.0,1.0,0.0,0.0,0.0,1.0,0.00040767318569123745,0.0003009226638823748,0.0004328619688749313,1.2184696791468346e-07,0.0,0.0,0.0,1.2184696791468346e-07,0.0,0.0,0.0,1.2184696791468346e-07,0.1372931,0.4020726500000012,9.75761675,8.999999999999999e-08,0.0,0.0,0.0,8.999999999999999e-08,0.0,0.0,0.0,8.999999999999999e-08
1728916988.5378144,195285,1728916988,527984448,base_link,-0.009929585061557944,0.02011172281218918,0.6980368895591144,-0.7157104322005288,1.0,0.0,0.0,0.0,1.0,0.0,0.0,0.0,1.0,-0.0002874028868973255,-0.00011384102981537579,5.741312634199859e-05,1.2184696791468346e-07,0.0,0.0,0.0,1.2184696791468346e-07,0.0,0.0,0.0,1.2184696791468346e-07,0.1372931,0.4020726500000012,9.75761675,8.999999999999999e-08,0.0,0.0,0.0,8.999999999999999e-08,0.0,0.0,0.0,8.999999999999999e-08
1728916988.6379085,195286,1728916988,628159808,base_link,-0.009933135589093514,0.020156351230631937,0.6980176004270616,-0.7157279398042828,1.0,0.0,0.0,0.0,1.0,0.0,0.0,0.0,1.0,-0.00043815048411488533,-0.00019650987815111884,-0.0006411367794498801,1.2184696791468346e-07,0.0,0.0,0.0,1.2184696791468346e-07,0.0,0.0,0.0,1.2184696791468346e-07,0.1372931,0.4020726500000012,9.75761675,8.999999999999999e-08,0.0,0.0,0.0,8.999999999999999e-08,0.0,0.0,0.0,8.999999999999999e-08
1728916988.738635,195287,1728916988,728334656,base_link,-0.009924412213886298,0.020180570656991456,0.6979767889356011,-0.715767177731219,1.0,0.0,0.0,0.0,1.0,0.0,0.0,0.0,1.0,-9.002373553812504e-05,-0.0005688148085027931,0.0019044195069000125,1.2184696791468346e-07,0.0,0.0,0.0,1.2184696791468346e-07,0.0,0.0,0.0,1.2184696791468346e-07,0.1372931,0.4020726500000012,9.75761675,8.999999999999999e-08,0.0,0.0,0.0,8.999999999999999e-08,0.0,0.0,0.0,8.999999999999999e-08
1728916988.8389745,195288,1728916988,828508992,base_link,-0.00991558955417221,0.020198140833010015,0.6979377875247813,-0.7158048343897213,1.0,0.0,0.0,0.0,1.0,0.0,0.0,0.0,1.0,-0.0006096565630286932,-0.00042809976730495664,0.0020499401725828648,1.2184696791468346e-07,0.0,0.0,0.0,1.2184696791468346e-07,0.0,0.0,0.0,1.2184696791468346e-07,0.14709975,0.4020726500000012,9.7674234,8.999999999999999e-08,0.0,0.0,0.0,8.999999999999999e-08,0.0,0.0,0.0,8.999999999999999e-08
1728916988.938665,195289,1728916988,928682816,base_link,-0.009882131874373572,0.02016796852444109,0.6979305508988953,-0.7158132037320762,1.0,0.0,0.0,0.0,1.0,0.0,0.0,0.0,1.0,-0.0016290240455418825,-0.0002894737990573048,0.0004744823090732098,1.2184696791468346e-07,0.0,0.0,0.0,1.2184696791468346e-07,0.0,0.0,0.0,1.2184696791468346e-07,0.14709975,0.4020726500000012,9.7674234,8.999999999999999e-08,0.0,0.0,0.0,8.999999999999999e-08,0.0,0.0,0.0,8.999999999999999e-08
1728916989.0388224,195290,1728916989,28856128,base_link,-0.009855227977604073,0.02019097839943808,0.69790104123087,-0.7158416972499229,1.0,0.0,0.0,0.0,1.0,0.0,0.0,0.0,1.0,6.738724187016487e-05,-0.00016501219943165763,0.0012225342215970159,1.2184696791468346e-07,0.0,0.0,0.0,1.2184696791468346e-07,0.0,0.0,0.0,1.2184696791468346e-07,0.14709975,0.4020726500000012,9.7674234,8.999999999999999e-08,0.0,0.0,0.0,8.999999999999999e-08,0.0,0.0,0.0,8.999999999999999e-08
1728916989.1393402,195291,1728916989,129028672,base_link,-0.009845754820861027,0.02020470329798906,0.6979060266804581,-0.7158365798139568,1.0,0.0,0.0,0.0,1.0,0.0,0.0,0.0,1.0,0.0011908498127013445,-0.0003991762641817332,-0.0004330785013735294,1.2184696791468346e-07,0.0,0.0,0.0,1.2184696791468346e-07,0.0,0.0,0.0,1.2184696791468346e-07,0.14709975,0.4020726500000012,9.7674234,8.999999999999999e-08,0.0,0.0,0.0,8.999999999999999e-08,0.0,0.0,0.0,8.999999999999999e-08
1728916989.2386694,195292,1728916989,229202496,base_link,-0.009840179101556502,0.02019712578894863,0.6978719270012239,-0.7158701142586642,1.0,0.0,0.0,0.0,1.0,0.0,0.0,0.0,1.0,-0.00013320660218596458,1.6993377357721535e-05,0.0016770880902186036,1.2184696791468346e-07,0.0,0.0,0.0,1.2184696791468346e-07,0.0,0.0,0.0,1.2184696791468346e-07,0.14709975,0.4020726500000012,9.7674234,8.999999999999999e-08,0.0,0.0,0.0,8.999999999999999e-08,0.0,0.0,0.0,8.999999999999999e-08
1728916989.3398027,195293,1728916989,329380928,base_link,-0.009838462972490813,0.02021355791961198,0.6978463550999836,-0.7158946021560975,1.0,0.0,0.0,0.0,1.0,0.0,0.0,0.0,1.0,0.00010726321488618851,-0.0008255931315943597,0.0014699469320476055,1.2184696791468346e-07,0.0,0.0,0.0,1.2184696791468346e-07,0.0,0.0,0.0,1.2184696791468346e-07,0.1372931,0.41187930000000117,9.77723005,8.999999999999999e-08,0.0,0.0,0.0,8.999999999999999e-08,0.0,0.0,0.0,8.999999999999999e-08
1728916989.4422977,195294,1728916989,429558592,base_link,-0.009863353164008394,0.020219084638845856,0.6978046126933393,-0.7159347912936121,1.0,0.0,0.0,0.0,1.0,0.0,0.0,0.0,1.0,0.00185905653052032,-9.260023944079622e-06,0.002080554375424981,1.2184696791468346e-07,0.0,0.0,0.0,1.2184696791468346e-07,0.0,0.0,0.0,1.2184696791468346e-07,0.1372931,0.41187930000000117,9.77723005,8.999999999999999e-08,0.0,0.0,0.0,8.999999999999999e-08,0.0,0.0,0.0,8.999999999999999e-08
1728916989.5399566,195295,1728916989,529736256,base_link,-0.00986952544213474,0.020238588158144246,0.6977858639071801,-0.715952428690777,1.0,0.0,0.0,0.0,1.0,0.0,0.0,0.0,1.0,0.0010147823486477137,-0.00037645571865141375,0.001365664997138083,1.2184696791468346e-07,0.0,0.0,0.0,1.2184696791468346e-07,0.0,0.0,0.0,1.2184696791468346e-07,0.1372931,0.41187930000000117,9.77723005,8.999999999999999e-08,0.0,0.0,0.0,8.999999999999999e-08,0.0,0.0,0.0,8.999999999999999e-08
1728916989.6401594,195296,1728916989,629913408,base_link,-0.009866205358598468,0.02023572197687141,0.6977794580753623,-0.7159587987000022,1.0,0.0,0.0,0.0,1.0,0.0,0.0,0.0,1.0,-0.0005395507905632257,-0.00098890729714185,1.2495671398937822e-05,1.2184696791468346e-07,0.0,0.0,0.0,1.2184696791468346e-07,0.0,0.0,0.0,1.2184696791468346e-07,0.1372931,0.41187930000000117,9.77723005,8.999999999999999e-08,0.0,0.0,0.0,8.999999999999999e-08,0.0,0.0,0.0,8.999999999999999e-08
1728916989.7397497,195297,1728916989,730089792,base_link,-0.00984935031174108,0.02023141048625216,0.6977798416455,-0.7159587787864286,1.0,0.0,0.0,0.0,1.0,0.0,0.0,0.0,1.0,-0.0003051408566534519,0.0006797169917263092,0.0011271294206380844,1.2184696791468346e-07,0.0,0.0,0.0,1.2184696791468346e-07,0.0,0.0,0.0,1.2184696791468346e-07,0.1372931,0.41187930000000117,9.77723005,8.999999999999999e-08,0.0,0.0,0.0,8.999999999999999e-08,0.0,0.0,0.0,8.999999999999999e-08
1728916989.8408551,195298,1728916989,830265664,base_link,-0.009845840369137968,0.02025025543321695,0.697762649685632,-0.7159750493459959,1.0,0.0,0.0,0.0,1.0,0.0,0.0,0.0,1.0,-4.621571861207485e-05,-0.0009172618156298993,0.0016430064570158722,1.2184696791468346e-07,0.0,0.0,0.0,1.2184696791468346e-07,0.0,0.0,0.0,1.2184696791468346e-07,0.1372931,0.41187930000000117,9.75761675,8.999999999999999e-08,0.0,0.0,0.0,8.999999999999999e-08,0.0,0.0,0.0,8.999999999999999e-08
1728916989.9412982,195299,1728916989,930442816,base_link,-0.009825531833870096,0.020255912363950947,0.6977235543348972,-0.7160132671010804,1.0,0.0,0.0,0.0,1.0,0.0,0.0,0.0,1.0,-0.002196052111685276,-0.00100300507619977,0.000782744202297181,1.2184696791468346e-07,0.0,0.0,0.0,1.2184696791468346e-07,0.0,0.0,0.0,1.2184696791468346e-07,0.1372931,0.41187930000000117,9.75761675,8.999999999999999e-08,0.0,0.0,0.0,8.999999999999999e-08,0.0,0.0,0.0,8.999999999999999e-08
1728916990.0407894,195300,1728916990,30619200,base_link,-0.009817463705429422,0.020286833191985962,0.6976963635577933,-0.7160389975997569,1.0,0.0,0.0,0.0,1.0,0.0,0.0,0.0,1.0,0.000340223778039217,-0.0008002253016456958,0.0022932442370802164,1.2184696791468346e-07,0.0,0.0,0.0,1.2184696791468346e-07,0.0,0.0,0.0,1.2184696791468346e-07,0.1372931,0.41187930000000117,9.75761675,8.999999999999999e-08,0.0,0.0,0.0,8.999999999999999e-08,0.0,0.0,0.0,8.999999999999999e-08
1728916990.1410484,195301,1728916990,130795072,base_link,-0.009810472534024974,0.02030000881900542,0.6976780518654023,-0.7160565621624484,1.0,0.0,0.0,0.0,1.0,0.0,0.0,0.0,1.0,0.0009148982353508472,-0.0005647046491503714,0.00114228087477386,1.2184696791468346e-07,0.0,0.0,0.0,1.2184696791468346e-07,0.0,0.0,0.0,1.2184696791468346e-07,0.1372931,0.41187930000000117,9.75761675,8.999999999999999e-08,0.0,0.0,0.0,8.999999999999999e-08,0.0,0.0,0.0,8.999999999999999e-08
1728916990.240704,195302,1728916990,230970176,base_link,-0.009827541483132972,0.02029524301486639,0.6976634982808421,-0.7160706429577338,1.0,0.0,0.0,0.0,1.0,0.0,0.0,0.0,1.0,-8.851033635437489e-05,0.00015561457257717867,0.0015187641838565469,1.2184696791468346e-07,0.0,0.0,0.0,1.2184696791468346e-07,0.0,0.0,0.0,1.2184696791468346e-07,0.1372931,0.41187930000000117,9.75761675,8.999999999999999e-08,0.0,0.0,0.0,8.999999999999999e-08,0.0,0.0,0.0,8.999999999999999e-08
1728916990.3409145,195303,1728916990,331145024,base_link,-0.009841435785334956,0.020288775023981936,0.6976318290871922,-0.7161014891718684,1.0,0.0,0.0,0.0,1.0,0.0,0.0,0.0,1.0,-0.0002564569003880024,0.00024731131270527845,0.0006278282962739468,1.2184696791468346e-07,0.0,0.0,0.0,1.2184696791468346e-07,0.0,0.0,0.0,1.2184696791468346e-07,0.1372931,0.41187930000000117,9.7478101,8.999999999999999e-08,0.0,0.0,0.0,8.999999999999999e-08,0.0,0.0,0.0,8.999999999999999e-08
1728916990.44117,195304,1728916990,431320896,base_link,-0.009851740666561195,0.020318871428099627,0.6976190866244675,-0.7161129077505664,1.0,0.0,0.0,0.0,1.0,0.0,0.0,0.0,1.0,0.0004613769706338644,-0.00050417089369148,0.0005630454979836942,1.2184696791468346e-07,0.0,0.0,0.0,1.2184696791468346e-07,0.0,0.0,0.0,1.2184696791468346e-07,0.1372931,0.41187930000000117,9.7478101,8.999999999999999e-08,0.0,0.0,0.0,8.999999999999999e-08,0.0,0.0,0.0,8.999999999999999e-08
1728916990.5418622,195305,1728916990,531496256,base_link,-0.009852172203623477,0.02030364977132389,0.6976027878784914,-0.7161292110038453,1.0,0.0,0.0,0.0,1.0,0.0,0.0,0.0,1.0,-0.0009277714416384697,0.0002647347282618286,0.0014870769809931517,1.2184696791468346e-07,0.0,0.0,0.0,1.2184696791468346e-07,0.0,0.0,0.0,1.2184696791468346e-07,0.1372931,0.41187930000000117,9.7478101,8.999999999999999e-08,0.0,0.0,0.0,8.999999999999999e-08,0.0,0.0,0.0,8.999999999999999e-08
1728916990.6420648,195306,1728916990,631671104,base_link,-0.009846654419932679,0.02031056344169262,0.6976043825832947,-0.7161275373912076,1.0,0.0,0.0,0.0,1.0,0.0,0.0,0.0,1.0,-0.0003429679200053215,-0.0002289783442392944,0.0011502493871375918,1.2184696791468346e-07,0.0,0.0,0.0,1.2184696791468346e-07,0.0,0.0,0.0,1.2184696791468346e-07,0.1372931,0.41187930000000117,9.7478101,8.999999999999999e-08,0.0,0.0,0.0,8.999999999999999e-08,0.0,0.0,0.0,8.999999999999999e-08
1728916990.7420802,195307,1728916990,731845184,base_link,-0.0098550007366834,0.020321072982929508,0.6975837509211724,-0.7161472218783297,1.0,0.0,0.0,0.0,1.0,0.0,0.0,0.0,1.0,-7.657287642359734e-05,0.00042472220957279216,0.0007944044773466885,1.2184696791468346e-07,0.0,0.0,0.0,1.2184696791468346e-07,0.0,0.0,0.0,1.2184696791468346e-07,0.1372931,0.41187930000000117,9.7478101,8.999999999999999e-08,0.0,0.0,0.0,8.999999999999999e-08,0.0,0.0,0.0,8.999999999999999e-08
1728916990.8426912,195308,1728916990,832022080,base_link,-0.009858888221359588,0.020332638664408972,0.6975180778304609,-0.7162108050201984,1.0,0.0,0.0,0.0,1.0,0.0,0.0,0.0,1.0,0.0006244780961424112,-0.0005156570114195344,0.002263697562739253,1.2184696791468346e-07,0.0,0.0,0.0,1.2184696791468346e-07,0.0,0.0,0.0,1.2184696791468346e-07,0.1372931,0.4216859500000012,9.7674234,8.999999999999999e-08,0.0,0.0,0.0,8.999999999999999e-08,0.0,0.0,0.0,8.999999999999999e-08
1728916990.9420252,195309,1728916990,932198464,base_link,-0.00984855449264551,0.020346325637611688,0.6975068361544104,-0.7162215066062441,1.0,0.0,0.0,0.0,1.0,0.0,0.0,0.0,1.0,4.454399459064007e-05,-0.0018008080078288915,-0.0012867234181612728,1.2184696791468346e-07,0.0,0.0,0.0,1.2184696791468346e-07,0.0,0.0,0.0,1.2184696791468346e-07,0.1372931,0.4216859500000012,9.7674234,8.999999999999999e-08,0.0,0.0,0.0,8.999999999999999e-08,0.0,0.0,0.0,8.999999999999999e-08
1728916991.0437725,195310,1728916991,32375360,base_link,-0.009854116842175954,0.02034740799427459,0.6974939915053222,-0.7162339081495296,1.0,0.0,0.0,0.0,1.0,0.0,0.0,0.0,1.0,0.0012648238334804773,-0.0011264901841059327,-0.0001419733744114636,1.2184696791468346e-07,0.0,0.0,0.0,1.2184696791468346e-07,0.0,0.0,0.0,1.2184696791468346e-07,0.1372931,0.4216859500000012,9.7674234,8.999999999999999e-08,0.0,0.0,0.0,8.999999999999999e-08,0.0,0.0,0.0,8.999999999999999e-08
1728916991.1479273,195311,1728916991,132551744,base_link,-0.009844162183385033,0.020337883803695413,0.6974821402530111,-0.7162458565195149,1.0,0.0,0.0,0.0,1.0,0.0,0.0,0.0,1.0,-0.0001676785759627819,0.0007920746575109662,0.001279706135392189,1.2184696791468346e-07,0.0,0.0,0.0,1.2184696791468346e-07,0.0,0.0,0.0,1.2184696791468346e-07,0.1372931,0.4216859500000012,9.7674234,8.999999999999999e-08,0.0,0.0,0.0,8.999999999999999e-08,0.0,0.0,0.0,8.999999999999999e-08
1728916991.2429593,195312,1728916991,232727360,base_link,-0.00984883848071218,0.02033104046374944,0.6974749061163957,-0.7162530310666526,1.0,0.0,0.0,0.0,1.0,0.0,0.0,0.0,1.0,-0.00016421591863036156,0.0009924268815666437,0.00012763612903654565,1.2184696791468346e-07,0.0,0.0,0.0,1.2184696791468346e-07,0.0,0.0,0.0,1.2184696791468346e-07,0.1372931,0.4216859500000012,9.7674234,8.999999999999999e-08,0.0,0.0,0.0,8.999999999999999e-08,0.0,0.0,0.0,8.999999999999999e-08
1728916991.3429115,195313,1728916991,332902976,base_link,-0.009838034153017846,0.020344908498795104,0.6974476852092435,-0.7162792920212391,1.0,0.0,0.0,0.0,1.0,0.0,0.0,0.0,1.0,0.0005950522609055042,-0.00044538569636642917,0.0014196208212524652,1.2184696791468346e-07,0.0,0.0,0.0,1.2184696791468346e-07,0.0,0.0,0.0,1.2184696791468346e-07,0.1372931,0.39226600000000117,9.77723005,8.999999999999999e-08,0.0,0.0,0.0,8.999999999999999e-08,0.0,0.0,0.0,8.999999999999999e-08
1728916991.4434593,195314,1728916991,433078080,base_link,-0.009812588663750586,0.020343311486171193,0.6974414154809495,-0.7162857912547351,1.0,0.0,0.0,0.0,1.0,0.0,0.0,0.0,1.0,0.00024217390455305576,0.0003408299526199698,-0.0005366186378523707,1.2184696791468346e-07,0.0,0.0,0.0,1.2184696791468346e-07,0.0,0.0,0.0,1.2184696791468346e-07,0.1372931,0.39226600000000117,9.77723005,8.999999999999999e-08,0.0,0.0,0.0,8.999999999999999e-08,0.0,0.0,0.0,8.999999999999999e-08
1728916991.5439062,195315,1728916991,533252416,base_link,-0.009834637815576093,0.02032030853729318,0.6974113244715304,-0.7163154399137655,1.0,0.0,0.0,0.0,1.0,0.0,0.0,0.0,1.0,0.000606141984462738,0.0008952197385951879,0.0016424490604549644,1.2184696791468346e-07,0.0,0.0,0.0,1.2184696791468346e-07,0.0,0.0,0.0,1.2184696791468346e-07,0.1372931,0.39226600000000117,9.77723005,8.999999999999999e-08,0.0,0.0,0.0,8.999999999999999e-08,0.0,0.0,0.0,8.999999999999999e-08
1728916991.6527743,195316,1728916991,633428032,base_link,-0.009853819477878896,0.020326198415464573,0.6973926981507999,-0.7163331434923418,1.0,0.0,0.0,0.0,1.0,0.0,0.0,0.0,1.0,0.00027803005650639534,0.0001624198630452157,0.0006321878172457218,1.2184696791468346e-07,0.0,0.0,0.0,1.2184696791468346e-07,0.0,0.0,0.0,1.2184696791468346e-07,0.1372931,0.39226600000000117,9.77723005,8.999999999999999e-08,0.0,0.0,0.0,8.999999999999999e-08,0.0,0.0,0.0,8.999999999999999e-08
1728916991.7444413,195317,1728916991,733602880,base_link,-0.009835967896253643,0.020322351561596428,0.697379486355725,-0.7163463602006896,1.0,0.0,0.0,0.0,1.0,0.0,0.0,0.0,1.0,7.517682388424873e-05,-0.00016022077761590478,0.00021556171122938397,1.2184696791468346e-07,0.0,0.0,0.0,1.2184696791468346e-07,0.0,0.0,0.0,1.2184696791468346e-07,0.1372931,0.39226600000000117,9.77723005,8.999999999999999e-08,0.0,0.0,0.0,8.999999999999999e-08,0.0,0.0,0.0,8.999999999999999e-08
1728916991.8438563,195318,1728916991,833781824,base_link,-0.009824333621915291,0.020320184651991816,0.6973709230861046,-0.7163549177597851,1.0,0.0,0.0,0.0,1.0,0.0,0.0,0.0,1.0,-0.00016073789447546005,-0.00046161608770489687,0.0003818311961367727,1.2184696791468346e-07,0.0,0.0,0.0,1.2184696791468346e-07,0.0,0.0,0.0,1.2184696791468346e-07,0.14709975,0.41187930000000117,9.7674234,8.999999999999999e-08,0.0,0.0,0.0,8.999999999999999e-08,0.0,0.0,0.0,8.999999999999999e-08
1728916991.9441087,195319,1728916991,933960256,base_link,-0.009861976112725159,0.02033978413281641,0.6973694938408521,-0.7163552356678466,1.0,0.0,0.0,0.0,1.0,0.0,0.0,0.0,1.0,-0.00039752409793436527,0.0010419078171253204,0.0002978857373818754,1.2184696791468346e-07,0.0,0.0,0.0,1.2184696791468346e-07,0.0,0.0,0.0,1.2184696791468346e-07,0.14709975,0.41187930000000117,9.7674234,8.999999999999999e-08,0.0,0.0,0.0,8.999999999999999e-08,0.0,0.0,0.0,8.999999999999999e-08
1728916992.0439386,195320,1728916992,34138176,base_link,-0.009862571155853412,0.020356353016806217,0.6973205734700075,-0.7164023774370875,1.0,0.0,0.0,0.0,1.0,0.0,0.0,0.0,1.0,0.00021000346168875694,-0.0003330316394567487,0.0020025698468089104,1.2184696791468346e-07,0.0,0.0,0.0,1.2184696791468346e-07,0.0,0.0,0.0,1.2184696791468346e-07,0.14709975,0.41187930000000117,9.7674234,8.999999999999999e-08,0.0,0.0,0.0,8.999999999999999e-08,0.0,0.0,0.0,8.999999999999999e-08
1728916992.1441162,195321,1728916992,134315584,base_link,-0.009867031028866814,0.02035422464785942,0.6972876554307794,-0.7164344162737484,1.0,0.0,0.0,0.0,1.0,0.0,0.0,0.0,1.0,0.00034281332045793533,-0.0009477530838921664,0.0014323223149403932,1.2184696791468346e-07,0.0,0.0,0.0,1.2184696791468346e-07,0.0,0.0,0.0,1.2184696791468346e-07,0.14709975,0.41187930000000117,9.7674234,8.999999999999999e-08,0.0,0.0,0.0,8.999999999999999e-08,0.0,0.0,0.0,8.999999999999999e-08
1728916992.245018,195322,1728916992,234492224,base_link,-0.009869470090272085,0.020346392527079104,0.6972472971043432,-0.716473882672606,1.0,0.0,0.0,0.0,1.0,0.0,0.0,0.0,1.0,-0.0003996756859123707,-2.3122294805943864e-05,0.0008186622872017324,1.2184696791468346e-07,0.0,0.0,0.0,1.2184696791468346e-07,0.0,0.0,0.0,1.2184696791468346e-07,0.14709975,0.41187930000000117,9.7674234,8.999999999999999e-08,0.0,0.0,0.0,8.999999999999999e-08,0.0,0.0,0.0,8.999999999999999e-08
1728916992.3448792,195323,1728916992,334668096,base_link,-0.009840512922352274,0.020308197803162023,0.6972192715758939,-0.7165026369460147,1.0,0.0,0.0,0.0,1.0,0.0,0.0,0.0,1.0,-0.0006978630553930998,0.0002698397729545832,0.0004678680561482906,1.2184696791468346e-07,0.0,0.0,0.0,1.2184696791468346e-07,0.0,0.0,0.0,1.2184696791468346e-07,0.1372931,0.41187930000000117,9.7674234,8.999999999999999e-08,0.0,0.0,0.0,8.999999999999999e-08,0.0,0.0,0.0,8.999999999999999e-08
1728916992.4685533,195324,1728916992,434845248,base_link,-0.009840931003755138,0.02030981919300504,0.6972061510697769,-0.7165153524048133,1.0,0.0,0.0,0.0,1.0,0.0,0.0,0.0,1.0,-0.00010099774226546288,0.00019255001097917562,0.0003831208450719714,1.2184696791468346e-07,0.0,0.0,0.0,1.2184696791468346e-07,0.0,0.0,0.0,1.2184696791468346e-07,0.1372931,0.41187930000000117,9.7674234,8.999999999999999e-08,0.0,0.0,0.0,8.999999999999999e-08,0.0,0.0,0.0,8.999999999999999e-08
1728916992.545341,195325,1728916992,535021888,base_link,-0.009846424999550565,0.020324414031161128,0.6971935084684733,-0.7165271647735619,1.0,0.0,0.0,0.0,1.0,0.0,0.0,0.0,1.0,0.0005822137463837862,-0.0007322995224967599,7.703027222305546e-05,1.2184696791468346e-07,0.0,0.0,0.0,1.2184696791468346e-07,0.0,0.0,0.0,1.2184696791468346e-07,0.1372931,0.41187930000000117,9.7674234,8.999999999999999e-08,0.0,0.0,0.0,8.999999999999999e-08,0.0,0.0,0.0,8.999999999999999e-08
1728916992.646093,195326,1728916992,635198016,base_link,-0.009827872668976842,0.020349234139747888,0.6971615182418431,-0.7165578407019606,1.0,0.0,0.0,0.0,1.0,0.0,0.0,0.0,1.0,0.00047398265451192856,0.00011132273357361577,0.0017663215985521674,1.2184696791468346e-07,0.0,0.0,0.0,1.2184696791468346e-07,0.0,0.0,0.0,1.2184696791468346e-07,0.1372931,0.41187930000000117,9.7674234,8.999999999999999e-08,0.0,0.0,0.0,8.999999999999999e-08,0.0,0.0,0.0,8.999999999999999e-08
1728916992.7452192,195327,1728916992,735373376,base_link,-0.00980423809465024,0.02035457757787356,0.6971353899695778,-0.7165834327829346,1.0,0.0,0.0,0.0,1.0,0.0,0.0,0.0,1.0,-0.0007969443686306477,0.00013280299026519068,0.0007594078779220581,1.2184696791468346e-07,0.0,0.0,0.0,1.2184696791468346e-07,0.0,0.0,0.0,1.2184696791468346e-07,0.1372931,0.41187930000000117,9.7674234,8.999999999999999e-08,0.0,0.0,0.0,8.999999999999999e-08,0.0,0.0,0.0,8.999999999999999e-08
1728916992.8459206,195328,1728916992,835548480,base_link,-0.009802039328775183,0.020353606271927914,0.6971271292296038,-0.7165915269027506,1.0,0.0,0.0,0.0,1.0,0.0,0.0,0.0,1.0,-0.0003775302320718765,-0.0007034123409539459,0.0014405895490199327,1.2184696791468346e-07,0.0,0.0,0.0,1.2184696791468346e-07,0.0,0.0,0.0,1.2184696791468346e-07,0.1372931,0.4216859500000012,9.7674234,8.999999999999999e-08,0.0,0.0,0.0,8.999999999999999e-08,0.0,0.0,0.0,8.999999999999999e-08
1728916992.946058,195329,1728916992,935723072,base_link,-0.00978836158276045,0.02035095321583001,0.6970944779749524,-0.7166235521231219,1.0,0.0,0.0,0.0,1.0,0.0,0.0,0.0,1.0,0.0003114051651209593,-0.00026458944194018825,0.0014000616502016783,1.2184696791468346e-07,0.0,0.0,0.0,1.2184696791468346e-07,0.0,0.0,0.0,1.2184696791468346e-07,0.1372931,0.4216859500000012,9.7674234,8.999999999999999e-08,0.0,0.0,0.0,8.999999999999999e-08,0.0,0.0,0.0,8.999999999999999e-08
1728916993.045966,195330,1728916993,35898432,base_link,-0.009780647849087432,0.02035603335262393,0.6970665568876461,-0.7166506722962039,1.0,0.0,0.0,0.0,1.0,0.0,0.0,0.0,1.0,-3.5570235922932625e-05,-0.0011249957606196404,0.00025197782088071124,1.2184696791468346e-07,0.0,0.0,0.0,1.2184696791468346e-07,0.0,0.0,0.0,1.2184696791468346e-07,0.1372931,0.4216859500000012,9.7674234,8.999999999999999e-08,0.0,0.0,0.0,8.999999999999999e-08,0.0,0.0,0.0,8.999999999999999e-08
1728916993.1461043,195331,1728916993,136076352,base_link,-0.009773027672516263,0.020321340955549456,0.6970252569614992,-0.7166919297645513,1.0,0.0,0.0,0.0,1.0,0.0,0.0,0.0,1.0,-0.0001227289903908968,-0.00016998522914946055,0.0020881653763353825,1.2184696791468346e-07,0.0,0.0,0.0,1.2184696791468346e-07,0.0,0.0,0.0,1.2184696791468346e-07,0.1372931,0.4216859500000012,9.7674234,8.999999999999999e-08,0.0,0.0,0.0,8.999999999999999e-08,0.0,0.0,0.0,8.999999999999999e-08
1728916993.247229,195332,1728916993,236255296,base_link,-0.009780648518666715,0.02032979897687964,0.6969952665452757,-0.7167207521772994,1.0,0.0,0.0,0.0,1.0,0.0,0.0,0.0,1.0,0.0006501597817987204,0.00020939821843057884,0.0011782629881054163,1.2184696791468346e-07,0.0,0.0,0.0,1.2184696791468346e-07,0.0,0.0,0.0,1.2184696791468346e-07,0.1372931,0.4216859500000012,9.7674234,8.999999999999999e-08,0.0,0.0,0.0,8.999999999999999e-08,0.0,0.0,0.0,8.999999999999999e-08
1728916993.3469243,195333,1728916993,336433984,base_link,-0.009802152054508191,0.020349884867750353,0.6969684395117606,-0.7167459761488102,1.0,0.0,0.0,0.0,1.0,0.0,0.0,0.0,1.0,0.0014644006732851267,-0.00046027358621358855,0.0011890764581039548,1.2184696791468346e-07,0.0,0.0,0.0,1.2184696791468346e-07,0.0,0.0,0.0,1.2184696791468346e-07,0.14709975,0.41187930000000117,9.7870367,8.999999999999999e-08,0.0,0.0,0.0,8.999999999999999e-08,0.0,0.0,0.0,8.999999999999999e-08
1728916993.447096,195334,1728916993,436611904,base_link,-0.009789791778025638,0.020359259370548614,0.696956887525014,-0.7167571119049121,1.0,0.0,0.0,0.0,1.0,0.0,0.0,0.0,1.0,0.0007557908538728952,-0.0010477832984179256,0.001151501317508519,1.2184696791468346e-07,0.0,0.0,0.0,1.2184696791468346e-07,0.0,0.0,0.0,1.2184696791468346e-07,0.14709975,0.41187930000000117,9.7870367,8.999999999999999e-08,0.0,0.0,0.0,8.999999999999999e-08,0.0,0.0,0.0,8.999999999999999e-08
1728916993.5467737,195335,1728916993,536784960,base_link,-0.009769912337848227,0.0203655715506028,0.6969167897671067,-0.7167961917093577,1.0,0.0,0.0,0.0,1.0,0.0,0.0,0.0,1.0,7.117888890206814e-05,-0.0007742054294794796,0.0018541180761530995,1.2184696791468346e-07,0.0,0.0,0.0,1.2184696791468346e-07,0.0,0.0,0.0,1.2184696791468346e-07,0.14709975,0.41187930000000117,9.7870367,8.999999999999999e-08,0.0,0.0,0.0,8.999999999999999e-08,0.0,0.0,0.0,8.999999999999999e-08
